"","Participant","Day","Block","Pnum","Problem","Base","Height","Answer","Practice","Trained","Seen","Time","Correct","ComputeTimeout","InputTimeout","ComputeDuration","InputDuration","FeedbackDuration","BlankDuration","BackspaceCount","Input","Interference4","InterDist4","Interference8","InterDist8","TotalSolved","Phase","Likelihood1","Likelihood2","Likelihood3","CountPhase","AllExpose","ExactSpacing","D1RT","LIK1","LIK2","LIK3","CNTPHS","PHS","allPHS","allCNTPHS","Experiment_Instance","Day_Trial","Milli_sec","Cumulative_Time","Time_Stamp_v2","ID","Instances","TrialTimeSec","TrialTimeMin_diff","TrialTimeSec_sumDiff","TrialTimeSec_sumDiffneg75","T","N","c","s","InvLogTime_diff","CumAveInvLogTime_diff","CumAveInvLogTime_diff_lag1"
"1",2,1,0,1,"9$3=24",9,3,24,1,0,0,10431,1,0,0,4110,3065,2501,751,0,24,0,0,0,0,1,0,0,0,0,0,0,0,0,0,0,0,0,0,0,0,1,1,10431,10431,10.431,"9$3=24",1,0,NA,0,0,1,0,0.1,0.1,0,0,0
"2",2,1,0,2,"5$5=15",5,5,15,1,0,0,9587,0,0,1,1331,5003,2502,751,0,0,0,0,0,0,2,0,0,0,0,0,0,0,0,0,0,0,0,0,0,0,2,2,9587,20018,20.018,"5$5=15",1,0,NA,0,0,1,0,0.1,0.1,0,0,0
"3",2,1,0,3,"4$4=10",4,4,10,1,0,0,8718,0,0,0,3972,1489,2500,753,0,12,0,0,0,0,3,0,0,0,0,0,0,0,0,0,0,0,0,0,0,0,3,3,8718,28736,28.736,"4$4=10",1,0,NA,0,0,1,0,0.1,0.1,0,0,0
"4",2,1,0,4,"5$3=12",5,3,12,1,0,0,14380,1,0,0,9860,1263,2500,754,0,12,0,0,0,0,4,0,0,0,0,0,0,0,0,0,0,0,0,0,0,0,4,4,14380,43116,43.116,"5$3=12",1,0,NA,0,0,1,0,0.1,0.1,0,0,0
"5",2,1,0,5,"6$6=21",6,6,21,1,0,0,14782,1,0,0,10715,815,2500,750,0,21,0,0,0,0,5,0,0,0,0,0,0,0,0,0,0,0,0,0,0,0,5,5,14782,57898,57.898,"6$6=21",1,0,NA,0,0,1,0,0.1,0.1,0,0,0
"6",2,1,0,6,"11$3=30",11,3,30,1,0,0,8296,1,0,0,4206,832,2501,754,0,30,0,0,0,0,6,0,0,0,0,0,0,0,0,0,0,0,0,0,0,0,6,6,8296,66194,66.194,"11$3=30",1,0,NA,0,0,1,0,0.1,0.1,0,0,0
"7",2,1,0,7,"9$4=30",9,4,30,1,0,0,19377,1,0,0,15468,655,2500,752,0,30,0,0,0,0,7,0,0,0,0,0,0,0,0,0,0,0,0,0,0,0,7,7,19377,85571,85.571,"9$4=30",1,0,NA,0,0,1,0,0.1,0.1,0,0,0
"8",2,1,0,8,"4$3=9",4,3,9,1,0,0,8036,1,0,0,3949,833,2502,750,0,9,0,0,0,0,8,0,0,0,0,0,0,0,0,0,0,0,0,0,0,0,8,8,8036,93607,93.607,"4$3=9",1,0,NA,0,0,1,0,0.1,0.1,0,0,0
"9",2,1,0,9,"6$4=18",6,4,18,1,0,0,10441,1,0,0,6156,1031,2500,752,0,18,0,0,0,0,9,0,0,0,0,0,0,0,0,0,0,0,0,0,0,0,9,9,10441,104048,104.048,"6$4=18",1,0,NA,0,0,1,0,0.1,0.1,0,0,0
"10",2,1,0,10,"8$5=30",8,5,30,1,0,0,10656,1,0,0,6693,711,2500,750,0,30,0,0,0,0,10,0,0,0,0,0,0,0,0,0,0,0,0,0,0,0,10,10,10656,114704,114.704,"8$5=30",1,0,NA,0,0,1,0,0.1,0.1,0,0,0
"11",2,1,1,1,"8$7=35",8,7,35,0,0,0,19668,1,0,0,15868,1047,2000,751,0,35,0,0,0,0,11,0,0,0,0,0,0,0,0,0,0,0,0,0,0,0,11,11,19668,134372,134.372,"8$7=35",1,0,NA,0,0,1,0,0.1,0.1,0,0,0
"12",2,1,1,2,"7$3=18",7,3,18,0,4,0,6221,1,0,0,2569,897,2002,751,0,18,0,0,0,0,12,1,1,0,0,1,1,NA,0,0,0,0,0,0,0,0,12,12,6221,140593,140.593,"7$3=18",1,0,NA,0,0,1,0,0.1,0.1,0,0,0
"13",2,1,1,3,"10$4=34",10,4,34,0,8,0,11181,0,0,0,7129,799,2500,750,0,33,0,0,0,0,13,1,1,0,0,1,2,NA,0,0,0,0,0,0,0,0,13,13,11181,151774,151.774,"10$4=34",1,0,NA,0,0,1,0,0.1,0.1,0,0,0
"14",2,1,1,4,"11$4=38",11,4,38,0,16,0,8870,1,0,0,4997,1115,2001,755,0,38,0,0,0,0,14,1,1,0,0,1,3,NA,0,0,0,0,0,0,0,0,14,14,8870,160644,160.644,"11$4=38",1,0,NA,0,0,1,0,0.1,0.1,0,0,0
"15",2,1,1,5,"7$5=25",7,5,25,0,8,0,9683,1,0,0,6049,881,2000,750,0,25,0,0,0,0,15,1,1,0,0,1,4,NA,0,0,0,0,0,0,0,0,15,15,9683,170327,170.327,"7$5=25",1,0,NA,0,0,1,0,0.1,0.1,0,0,0
"16",2,1,1,6,"7$3=18",7,3,18,0,4,1,6204,1,0,0,2563,887,2000,752,0,18,0,0,0,0,16,2,0.127124023,0.872875977,0,1,5,3,0,0,0,0,0,0,0,0,16,16,6204,176531,176.531,"7$3=18",2,35.938,35.938,35.938,0.0681294011786543,35.938,1,0.1,0.1,0.27361957404524,0.13680978702262,0
"17",2,1,1,7,"9$5=35",9,5,35,0,16,0,12839,1,0,0,9147,935,2000,754,0,35,0,0,0,0,17,1,1,0,0,1,6,NA,0,0,0,0,0,0,0,0,17,17,12839,189370,189.37,"9$5=35",1,0,NA,0,0,1,0,0.1,0.1,0,0,0
"18",2,1,1,8,"10$5=40",10,5,40,0,32,0,12390,0,0,0,7953,1183,2501,750,0,39,0,0,0,0,18,1,1,0,0,1,7,NA,0,0,0,0,0,0,0,0,18,18,12390,201760,201.76,"10$5=40",1,0,NA,0,0,1,0,0.1,0.1,0,0,0
"19",2,1,1,9,"3$3=6",3,3,6,0,16,0,5487,1,0,0,2053,681,2001,750,0,6,0,0,0,0,19,1,1,0,0,1,8,NA,0,0,0,0,0,0,0,0,19,19,5487,207247,207.247,"3$3=6",1,0,NA,0,0,1,0,0.1,0.1,0,0,0
"20",2,1,1,10,"7$3=18",7,3,18,0,4,2,5807,1,0,0,2204,846,2000,751,0,18,0,0,0,0,20,2,0.012580069,0.660554826,0.326865105,2,9,3,0,0,0,0,0,0,0,0,20,20,5807,213054,213.054,"7$3=18",3,72.461,36.523,108.984,0.107573763235157,49.9744561486656,2,0.1,0.1,0.272499663627475,0.182039745890905,0.13680978702262
"21",2,1,1,11,"10$4=34",10,4,34,0,8,1,9071,1,0,0,5333,985,2001,750,0,34,0,0,0,0,21,1,0.95598278,0.04401722,0,2,10,7,0,0,0,0,0,0,0,0,21,21,9071,222125,222.125,"10$4=34",2,70.351,70.351,70.351,0.0411668174607259,70.351,1,0.1,0.1,0.23302375040266,0.11651187520133,0
"22",2,1,1,12,"7$4=22",7,4,22,0,32,0,13295,1,0,0,9781,759,2000,752,0,22,0,0,0,0,22,1,1,0,0,1,11,NA,0,0,0,0,0,0,0,0,22,22,13295,235420,235.42,"7$4=22",1,0,NA,0,0,1,0,0.1,0.1,0,0,0
"23",2,1,1,13,"7$5=25",7,5,25,0,8,1,18892,1,0,0,15137,999,2004,750,0,25,0,0,0,0,23,1,0.999996933,3.07e-06,0,2,12,7,0,0,0,0,0,0,0,0,23,23,18892,254312,254.312,"7$5=25",2,83.985,83.985,83.985,0.0360453050329636,83.985,1,0.1,0.1,0.224090050853407,0.112045025426704,0
"24",2,1,1,14,"7$3=18",7,3,18,0,4,3,5917,1,0,0,2176,985,2002,751,0,18,0,0,0,0,24,3,0.000904475,0.36703005,0.632065475,1,13,3,0,0,0,0,0,0,0,0,24,24,5917,260229,260.229,"7$3=18",4,119.636,47.175,250.509,0.119336230635986,75.0206192018758,3,0.1,0.1,0.255761909086505,0.200470286689805,0.182039745890905
"25",2,1,1,15,"8$6=33",8,6,33,0,16,0,18982,1,0,0,15389,839,2000,752,0,33,0,0,0,0,25,1,1,0,0,1,14,NA,0,0,0,0,0,0,0,0,25,25,18982,279211,279.211,"8$6=33",1,0,NA,0,0,1,0,0.1,0.1,0,0,0
"26",2,1,1,16,"9$6=39",9,6,39,0,32,0,18329,1,0,0,14601,975,2001,750,0,39,0,0,0,0,26,1,1,0,0,1,15,NA,0,0,0,0,0,0,0,0,26,26,18329,297540,297.54,"9$6=39",1,0,NA,0,0,1,0,0.1,0.1,0,0,0
"27",2,1,1,17,"8$5=30",8,5,30,0,0,1,16101,1,0,0,11933,1415,2000,750,0,30,0,0,0,0,27,0,0,0,0,0,0,0,0,0,0,0,0,0,0,0,27,27,16101,313641,313.641,"8$5=30",2,198.937,198.937,198.937,0.0188783192733665,198.937,1,0.1,0.1,0.188446009070031,0.0942230045350154,0
"28",2,1,1,18,"7$3=18",7,3,18,0,4,4,5367,1,0,0,1761,849,2002,752,0,18,0,0,0,0,28,3,4.17e-05,0.146608973,0.853349302,2,16,2,0,0,0,0,0,0,0,0,28,28,5367,319008,319.008,"7$3=18",5,178.415,58.779,485.625,0.122120617206226,107.163545532965,4,0.1,0.1,0.242777787154531,0.20893178678275,0.200470286689805
"29",2,1,1,19,"10$4=34",10,4,34,0,8,2,11463,1,0,0,7785,926,2000,750,0,34,0,0,0,0,29,1,0.899447515,0.100552485,6.11e-17,3,17,6,0,0,0,0,0,0,0,0,29,29,11463,330471,330.471,"10$4=34",3,178.697,108.346,287.043,0.0502379469898446,136.997703323749,2,0.1,0.1,0.212309305009806,0.148444351804155,0.11651187520133
"30",2,1,1,20,"11$4=38",11,4,38,0,16,1,8316,1,0,0,4659,905,2000,750,0,38,0,0,0,0,30,1,0.965526686,0.034473314,0,2,18,14,0,0,0,0,0,0,0,0,30,30,8316,338787,338.787,"11$4=38",2,178.143,178.143,178.143,0.0205080056632628,178.143,1,0.1,0.1,0.192391666138492,0.096195833069246,0
"31",2,1,1,21,"7$5=25",7,5,25,0,8,2,14930,1,0,0,11244,927,2004,752,0,25,0,0,0,0,31,1,0.999496962,0.000503038,1.02e-23,3,19,6,0,0,0,0,0,0,0,0,31,31,14930,353717,353.717,"7$5=25",3,183.39,99.405,282.795,0.0518309763750911,131.919763439419,2,0.1,0.1,0.216161031878079,0.146750360910496,0.112045025426704
"32",2,1,1,22,"7$3=18",7,3,18,0,4,5,7066,1,0,0,1277,3033,2003,750,2,18,0,0,0,0,32,3,1.81e-06,0.045544425,0.954453767,3,20,3,0,0,0,0,0,0,0,0,32,32,7066,360783,360.783,"7$3=18",6,220.19,41.775,694.5,0.15343910472463,109.044401803532,5,0.1,0.1,0.263481130084836,0.218023343999765,0.20893178678275
"33",2,1,1,23,"9$5=35",9,5,35,0,16,1,10797,1,0,0,7018,1014,2011,750,0,35,0,0,0,0,33,2,0.282294153,0.717705847,0,1,21,14,0,0,0,0,0,0,0,0,33,33,10797,371580,371.58,"9$5=35",2,182.21,182.21,182.21,0.0201637286289757,182.21,1,0.1,0.1,0.191572052526781,0.0957860262633905,0
"34",2,1,1,24,"8$3=21",8,3,21,0,32,0,6557,1,0,0,3062,737,2001,754,0,21,0,0,0,0,34,1,1,0,0,1,22,NA,0,0,0,0,0,0,0,0,34,34,6557,378137,378.137,"8$3=21",1,0,NA,0,0,1,0,0.1,0.1,0,0,0
"35",2,1,1,25,"3$3=6",3,3,6,0,16,1,4935,1,0,0,1486,694,2001,752,0,6,0,0,0,0,35,2,0.047329022,0.952670978,0,1,23,14,0,0,0,0,0,0,0,0,35,35,4935,383072,383.072,"3$3=6",2,175.825,175.825,175.825,0.020710449762485,175.825,1,0.1,0.1,0.192870315526994,0.0964351577634972,0
"36",2,1,1,26,"7$3=18",7,3,18,0,4,6,5228,1,0,0,1633,841,2001,750,0,18,0,0,0,0,36,3,5.7e-08,0.015429747,0.984570196,4,24,3,0,0,0,0,0,0,0,0,36,36,5228,388300,388.3,"7$3=18",7,247.707,27.517,859.602,0.205929747500911,96.9258838931736,6,0.1,0.1,0.293340337014434,0.228782914430431,0.218023343999765
"37",2,1,1,27,"10$4=34",10,4,34,0,8,3,9902,1,0,0,6002,1143,2005,750,0,34,0,0,0,0,37,1,0.706370462,0.293629538,1.19e-13,4,25,7,0,0,0,0,0,0,0,0,37,37,9902,398202,398.202,"10$4=34",4,246.428,67.731,490.236,0.0791216896606649,132.372928794626,3,0.1,0.1,0.235023533988825,0.170089147350323,0.148444351804155
"38",2,1,1,28,"5$5=15",5,5,15,0,0,1,9896,1,0,0,6336,807,2000,751,0,15,0,0,0,0,38,0,0,0,0,0,0,0,0,0,0,0,0,0,0,0,38,38,9896,408098,408.098,"5$5=15",2,388.08,388.08,388.08,0.0114369192233886,388.08,1,0.1,0.1,0.167554944583148,0.0837774722915741,0
"39",2,1,1,29,"7$5=25",7,5,25,0,8,3,8343,1,0,0,4739,848,2003,751,0,25,0,0,0,0,39,1,0.990677779,0.009322221,3.23e-17,4,26,6,0,0,0,0,0,0,0,0,39,39,8343,416441,416.441,"7$5=25",4,246.114,62.724,470.967,0.0829693673526147,124.664859548772,3,0.1,0.1,0.239167588075372,0.169854667701715,0.146750360910496
"40",2,1,1,30,"7$3=18",7,3,18,0,4,7,4595,1,0,0,996,846,2000,751,0,18,0,0,0,0,40,3,1.49e-09,0.003572647,0.996427352,5,27,2,0,0,0,0,0,0,0,0,40,40,4595,421036,421.036,"7$3=18",8,280.443,32.736,1088.754,0.22162733037575,107.213414703123,7,0.1,0.1,0.280249890814389,0.235216286478426,0.228782914430431
"41",2,1,1,31,"8$6=33",8,6,33,0,16,1,17562,0,0,0,13053,1255,2502,750,0,34,0,0,0,0,41,1,0.999999996,3.67e-09,0,2,28,13,0,0,0,0,0,0,0,0,41,41,17562,438598,438.598,"8$6=33",2,159.387,159.387,159.387,0.022292579685984,159.387,1,0.1,0.1,0.19653137793381,0.0982656889669049,0
"42",2,1,1,32,"8$2=15",8,2,15,0,0,0,5067,1,0,0,1613,700,2002,750,0,15,0,0,0,0,42,0,0,0,0,0,0,0,0,0,0,0,0,0,0,0,42,42,5067,443665,443.665,"8$2=15",1,0,NA,0,0,1,0,0.1,0.1,0,0,0
"43",2,1,1,33,"11$2=21",11,2,21,0,0,0,5009,1,0,0,1337,918,2002,750,0,21,0,0,0,0,43,0,0,0,0,0,0,0,0,0,0,0,0,0,0,0,43,43,5009,448674,448.674,"11$2=21",1,0,NA,0,0,1,0,0.1,0.1,0,0,0
"44",2,1,1,34,"7$3=18",7,3,18,0,4,8,4611,1,0,0,1089,769,2000,750,0,18,0,0,0,0,44,3,3.64e-11,0.000871553,0.999128447,6,29,1,0,0,0,0,0,0,0,0,44,44,4611,453285,453.285,"7$3=18",9,312.692,32.249,1346.746,0.240344966045792,115.150798102291,8,0.1,0.1,0.28134042127747,0.240341190344987,0.235216286478426
"45",2,1,1,35,"10$4=34",10,4,34,0,8,4,7589,1,0,0,3646,1190,2001,750,0,34,0,0,0,0,45,2,0.442523728,0.557476272,3.38e-11,1,30,4,0,0,0,0,0,0,0,0,45,45,7589,460874,460.874,"10$4=34",5,309.1,62.672,740.924,0.100838173753382,141.977387485203,4,0.1,0.1,0.239213066428841,0.183913931166026,0.170089147350323
"46",2,1,1,36,"11$4=38",11,4,38,0,16,2,8685,1,0,0,4730,1201,2000,751,0,38,0,0,0,0,46,1,0.935188894,0.064811106,7.47e-13,3,31,12,0,0,0,0,0,0,0,0,46,46,8685,469559,469.559,"11$4=38",3,308.915,130.772,439.687,0.0394304091351795,192.085799686507,2,0.1,0.1,0.204330637478162,0.132240767872218,0.096195833069246
"47",2,1,1,37,"7$5=25",7,5,25,0,8,4,5524,1,0,0,2029,742,2000,750,0,25,0,0,0,0,47,1,0.982673062,0.017326938,1.42e-14,5,32,5,0,0,0,0,0,0,0,0,47,47,5524,475083,475.083,"7$5=25",5,304.756,58.6420000000001,705.535,0.105707308692551,133.569269082551,4,0.1,0.1,0.242909310229353,0.184465596207242,0.169854667701715
"48",2,1,1,38,"7$3=18",7,3,18,0,4,9,4428,1,0,0,939,729,2004,754,0,18,0,0,0,0,48,3,8.33e-13,0.000196018,0.999803982,7,33,3,0,0,0,0,0,0,0,0,48,48,4428,479511,479.511,"7$3=18",10,338.918,26.226,1582.78,0.276580561983229,113.276537613101,9,0.1,0.1,0.297143912236704,0.246021462534158,0.240341190344987
"49",2,1,1,39,"9$5=35",9,5,35,0,16,2,4785,1,0,0,1260,769,2000,753,0,35,0,0,0,0,49,3,0.006495687,0.446870689,0.546633624,1,34,12,0,0,0,0,0,0,0,0,49,49,4785,484296,484.296,"9$5=35",3,294.926,112.716,407.642,0.0429587771473747,172.314523727967,2,0.1,0.1,0.210583888115394,0.134051980214058,0.0957860262633905
"50",2,1,1,40,"10$5=40",10,5,40,0,32,1,17176,1,0,0,13672,747,2000,754,0,40,0,0,0,0,50,1,0.916928162,0.083071838,0,2,35,27,0,0,0,0,0,0,0,0,50,50,17176,501472,501.472,"10$5=40",2,299.712,299.712,299.712,0.0138826348646683,299.712,1,0.1,0.1,0.17507460172442,0.0875373008622099,0
"51",2,1,2,1,"3$3=6",3,3,6,0,16,2,5310,1,0,0,1937,617,2004,750,0,6,0,0,0,0,51,3,0.001513022,0.406340473,0.592146504,1,36,12,0,0,0,0,0,0,0,0,51,51,5310,506782,506.782,"3$3=6",3,299.535,123.71,423.245,0.0408473286586298,183.493492745164,2,0.1,0.1,0.206625436124138,0.133165250550378,0.0964351577634972
"52",2,1,2,2,"7$3=18",7,3,18,0,4,10,4812,1,0,0,887,1169,2000,754,0,18,0,0,0,0,52,3,1.99e-14,4.42e-05,0.999955797,8,37,3,0,0,0,0,0,0,0,0,52,52,4812,511594,511.594,"7$3=18",11,371.001,32.083,1903.61,0.279606583245293,127.306169836943,10,0.1,0.1,0.281717580910929,0.249266564204774,0.246021462534158
"53",2,1,2,3,"10$4=34",10,4,34,0,8,5,7930,1,0,0,1009,4166,2002,750,0,34,0,0,0,0,53,2,0.313562619,0.686437381,6.06e-10,2,38,7,0,0,0,0,0,0,0,0,53,53,7930,519524,519.524,"10$4=34",6,367.75,58.65,1034.174,0.120025271561037,152.68555313854,5,0.1,0.1,0.242901618058883,0.193745212314836,0.183913931166026
"54",2,1,2,4,"7$4=22",7,4,22,0,32,1,8195,1,0,0,4843,598,2000,752,0,22,0,0,0,0,54,1,0.984302863,0.015697137,0,2,39,27,0,0,0,0,0,0,0,0,54,54,8195,527719,527.719,"7$4=22",2,292.299,292.299,292.299,0.0141458647951844,292.299,1,0.1,0.1,0.175838584939254,0.0879192924696272,0
"55",2,1,2,5,"7$5=25",7,5,25,0,8,5,4622,1,0,0,1097,769,2001,753,0,25,0,0,0,0,55,1,0.980070066,0.019929934,6.93e-14,6,40,7,0,0,0,0,0,0,0,0,55,55,4622,532341,532.341,"7$5=25",6,362.014,57.258,991.825,0.123554727543107,146.761637997716,5,0.1,0.1,0.244262924559402,0.194431817599269,0.184465596207242
"56",2,1,2,6,"7$3=18",7,3,18,0,4,11,4449,1,0,0,904,793,2000,750,0,18,0,0,0,0,56,3,5.24e-16,1.05e-05,0.999989487,9,41,3,0,0,0,0,0,0,0,0,56,56,4449,536790,536.79,"7$3=18",12,396.197,25.196,2180.766,0.314530814895408,125.288516921302,11,0.1,0.1,0.300378015097324,0.253525851779153,0.249266564204774
"57",2,1,2,7,"8$6=33",8,6,33,0,16,2,21990,1,0,0,18646,590,2000,752,0,33,0,0,0,0,57,1,0.999999586,4.14e-07,2.62e-30,3,42,13,0,0,0,0,0,0,0,0,57,57,21990,558780,558.78,"8$6=33",3,279.569,120.182,399.751,0.0421761839091604,175.45574037415,2,0.1,0.1,0.207840866968142,0.134790748300651,0.0982656889669049
"58",2,1,2,8,"9$6=39",9,6,39,0,32,1,9736,1,0,0,6062,921,2000,750,0,39,0,0,0,0,58,1,0.683258523,0.316741477,0,2,43,27,0,0,0,0,0,0,0,0,58,58,9736,568516,568.516,"9$6=39",2,270.976,270.976,270.976,0.0149727605502893,270.976,1,0.1,0.1,0.178189221482612,0.0890946107413062,0
"59",2,1,2,9,"7$2=13",7,2,13,0,0,0,5255,1,0,0,1531,969,2000,753,0,13,0,0,0,0,59,0,0,0,0,0,0,0,0,0,0,0,0,0,0,0,59,59,5255,573771,573.771,"7$2=13",1,0,NA,0,0,1,0,0.1,0.1,0,0,0
"60",2,1,2,10,"7$3=18",7,3,18,0,4,12,4544,1,0,0,985,803,2001,753,0,18,0,0,0,0,60,3,1.43e-17,2.68e-06,0.999997323,10,44,2,0,0,0,0,0,0,0,0,60,60,4544,578315,578.315,"7$3=18",13,437.722,41.5250000000001,2679.066,0.284645222507992,156.849998038636,12,0.1,0.1,0.263872883532551,0.254321777298645,0.253525851779153
"61",2,1,2,11,"10$4=34",10,4,34,0,8,6,11148,1,0,0,7681,710,2002,752,0,34,0,0,0,0,61,2,0.287304884,0.712695115,1.39e-09,3,45,6,0,0,0,0,0,0,0,0,61,61,11148,589463,589.463,"10$4=34",7,437.689,69.939,1453.808,0.124837583087492,183.771989248151,6,0.1,0.1,0.233331192003082,0.1994003522703,0.193745212314836
"62",2,1,2,12,"11$4=38",11,4,38,0,16,3,11422,1,0,0,7838,830,2001,750,0,38,0,0,0,0,62,1,0.904418997,0.095581003,7.19e-11,4,46,14,0,0,0,0,0,0,0,0,62,62,11422,600885,600.885,"11$4=38",4,440.241,131.326,833.665,0.0515335837218224,232.652929077118,3,0.1,0.1,0.204157870753137,0.150220043592448,0.132240767872218
"63",2,1,2,13,"7$5=25",7,5,25,0,8,6,4761,1,0,0,1305,697,2003,754,0,25,0,0,0,0,63,1,0.979276554,0.020723446,1.72e-13,7,47,6,0,0,0,0,0,0,0,0,63,63,4761,605646,605.646,"7$5=25",7,435.319,73.3049999999999,1431.655,0.12403810377565,184.591083803338,6,0.1,0.1,0.230891445169267,0.199640335823554,0.194431817599269
"64",2,1,2,14,"7$3=18",7,3,18,0,4,13,4484,1,0,0,949,779,2003,750,0,18,0,0,0,0,64,3,4.06e-19,6.87e-07,0.999999313,11,48,3,0,0,0,0,0,0,0,0,64,64,4484,610130,610.13,"7$3=18",14,469.537,31.8149999999999,3092.661,0.30614483155876,160.22041241582,13,0.1,0.1,0.28233246312842,0.256322540572201,0.254321777298645
"65",2,1,2,15,"9$5=35",9,5,35,0,16,3,4440,1,0,0,958,729,2000,750,0,35,0,0,0,0,65,3,0.000152348,0.095011877,0.904835776,2,49,14,0,0,0,0,0,0,0,0,65,65,4440,614570,614.57,"9$5=35",4,425.2,130.274,798.464,0.0528611651751031,224.504591434033,3,0.1,0.1,0.204486804678576,0.151660686330188,0.134051980214058
"66",2,1,2,16,"8$3=21",8,3,21,0,32,1,5575,1,0,0,2106,716,2000,750,0,21,0,0,0,0,66,2,0.171739894,0.828260106,0,1,50,27,0,0,0,0,0,0,0,0,66,66,5575,620145,620.145,"8$3=21",2,242.008,242.008,242.008,0.0162977521172579,242.008,1,0.1,0.1,0.181813541640214,0.0909067708201072,0
"67",2,1,2,17,"3$3=6",3,3,6,0,16,3,4362,1,0,0,1079,529,2001,750,0,6,0,0,0,0,67,3,3.1e-05,0.087128179,0.912840793,2,51,14,0,0,0,0,0,0,0,0,67,67,4362,624507,624.507,"3$3=6",4,417.26,117.725,776.42,0.0551384604376671,213.198164218427,3,0.1,0.1,0.208716896204267,0.15205316196385,0.133165250550378
"68",2,1,2,18,"7$3=18",7,3,18,0,4,14,4682,1,0,0,985,945,2000,750,0,18,0,0,0,0,68,3,1.2e-20,1.84e-07,0.999999816,12,52,3,0,0,0,0,0,0,0,0,68,68,4682,629189,629.189,"7$3=18",15,488.596,19.059,3359.487,0.373511695259732,140.527701065366,14,0.1,0.1,0.32458392390241,0.260873299460881,0.256322540572201
"69",2,1,2,19,"10$4=34",10,4,34,0,8,7,6190,1,0,0,2663,766,2004,755,0,34,0,0,0,0,69,2,0.212117471,0.787882187,3.42e-07,4,53,7,0,0,0,0,0,0,0,0,69,69,6190,635379,635.379,"10$4=34",8,483.605,45.9160000000001,1775.22,0.156696706588769,171.156796399198,7,0.1,0.1,0.257444744007448,0.206655901237443,0.1994003522703
"70",2,1,2,20,"4$4=10",4,4,10,0,0,1,10981,0,0,0,6813,911,2500,754,0,12,0,0,0,0,70,0,0,0,0,0,0,0,0,0,0,0,0,0,0,0,70,70,10981,646360,646.36,"4$4=10",2,617.624,617.624,617.624,0.00807154880707392,617.624,1,0.1,0.1,0.15551443148449,0.077757215742245,0
"71",2,1,2,21,"7$5=25",7,5,25,0,8,7,33262,1,0,0,27966,2542,2000,750,1,25,0,0,0,0,71,1,0.978764825,0.021235175,1e-12,8,54,6,0,0,0,0,0,0,0,0,71,71,33262,679622,679.622,"7$5=25",8,509.295,73.976,1949.487,0.130133258428276,213.370354005612,7,0.1,0.1,0.230423923513039,0.20348828428474,0.199640335823554
"72",2,1,2,22,"7$3=18",7,3,18,0,4,15,4611,1,0,0,929,929,2001,750,0,18,0,0,0,0,72,3,4.22e-22,5.06e-08,0.999999949,13,55,2,0,0,0,0,0,0,0,0,72,72,4611,684233,684.233,"7$3=18",16,543.64,55.044,4185.147,0.29257417595119,202.397913111379,15,0.1,0.1,0.246527901093715,0.259976712062933,0.260873299460881
"73",2,1,2,23,"8$6=33",8,6,33,0,16,3,8130,0,0,0,3789,1086,2500,752,0,39,0,0,0,0,73,1,0.999725152,0.000274848,1.81e-20,4,56,13,0,0,0,0,0,0,0,0,73,73,8130,692363,692.363,"8$6=33",4,413.152,133.583,800.5,0.0520903617106704,228.437097899458,3,0.1,0.1,0.203464274577754,0.151959129869927,0.134790748300651
"74",2,1,2,24,"12$2=23",12,2,23,0,0,0,6161,1,0,0,2796,609,2000,753,0,23,0,0,0,0,74,0,0,0,0,0,0,0,0,0,0,0,0,0,0,0,74,74,6161,698524,698.524,"12$2=23",1,0,NA,0,0,1,0,0.1,0.1,0,0,0
"75",2,1,2,25,"10$7=49",10,7,49,0,0,0,13368,0,0,0,6394,3718,2503,750,0,51,0,0,0,0,75,0,0,0,0,0,0,0,0,0,0,0,0,0,0,0,75,75,13368,711892,711.892,"10$7=49",1,0,NA,0,0,1,0,0.1,0.1,0,0,0
"76",2,1,2,26,"7$3=18",7,3,18,0,4,16,4872,1,0,0,1236,881,2000,750,0,18,0,0,0,0,76,3,1.33e-23,1.57e-08,0.999999984,14,57,1,0,0,0,0,0,0,0,0,76,76,4872,716764,716.764,"7$3=18",17,576.171,32.5310000000001,4705.643,0.321258292612819,198.550100635131,16,0.1,0.1,0.280706075849896,0.261196086403343,0.259976712062933
"77",2,1,2,27,"10$4=34",10,4,34,0,8,8,6773,1,0,0,2964,1054,2002,750,0,34,0,0,0,0,77,2,0.18338481,0.816613386,1.8e-06,5,58,4,0,0,0,0,0,0,0,0,77,77,6773,723537,723.537,"10$4=34",9,571.763,88.158,2480.484,0.13636164183154,239.024037594615,8,0.1,0.1,0.221754121882124,0.208333481309074,0.206655901237443
"78",2,1,2,28,"11$4=38",11,4,38,0,16,4,8826,0,0,0,4825,745,2500,750,0,34,0,0,0,0,78,1,0.795813929,0.204185997,7.43e-08,5,59,12,0,0,0,0,0,0,0,0,78,78,8826,732363,732.363,"11$4=38",5,571.719,131.478,1359.577,0.0609453480550637,274.942149072763,4,0.1,0.1,0.20411064477526,0.16099816382901,0.150220043592448
"79",2,1,2,29,"7$5=25",7,5,25,0,8,8,4416,1,0,0,935,726,2000,752,0,25,0,0,0,0,79,2,0.023776819,0.959362191,0.01686099,1,60,5,0,0,0,0,0,0,0,0,79,79,4416,736779,736.779,"7$5=25",9,566.452,57.157,2406.743,0.150859126241118,213.157798185485,8,0.1,0.1,0.244363525421502,0.20802997774438,0.20348828428474
"80",2,1,2,30,"7$3=18",7,3,18,0,4,17,4544,1,0,0,968,824,2000,750,0,18,0,0,0,0,80,3,3.47e-25,4.15e-09,0.999999996,15,61,3,0,0,0,0,0,0,0,0,80,80,4544,741323,741.323,"7$3=18",18,600.73,24.559,5123.146,0.364143115202229,186.250735733757,17,0.1,0.1,0.302475380936431,0.26348938054407,0.261196086403343
"81",2,1,2,31,"9$5=35",9,5,35,0,16,4,4648,1,0,0,1103,793,2000,750,0,35,0,0,0,0,81,3,3.45e-06,0.021704553,0.978291998,3,62,12,0,0,0,0,0,0,0,0,81,81,4648,745971,745.971,"9$5=35",5,556.601,131.401,1324.068,0.0616120698712907,270.461071161838,4,0.1,0.1,0.204134559041375,0.162155460872425,0.151660686330188
"82",2,1,2,32,"10$5=40",10,5,40,0,32,2,4737,1,0,0,1215,766,2001,753,0,40,-1,-30,0,0,82,2,0.040046524,0.901770341,0.058183135,1,63,27,0,0,0,0,0,0,0,0,82,82,4737,750708,750.708,"10$5=40",3,548.948,249.236,798.184,0.0247595919241526,355.972324545511,2,0.1,0.1,0.180856431715005,0.118643677813141,0.0875373008622099
"83",2,1,2,33,"3$3=6",3,3,6,0,16,4,4184,1,0,0,911,521,2000,750,0,6,0,0,0,0,83,3,6.33e-07,0.01725832,0.982741047,3,64,12,0,0,0,0,0,0,0,0,83,83,4184,754892,754.892,"3$3=6",5,547.645,130.385,1297.96,0.0625562427883861,264.988814421227,4,0.1,0.1,0.204451925049459,0.162532914580972,0.15205316196385
"84",2,1,2,34,"7$3=18",7,3,18,0,4,18,4305,1,0,0,756,793,2003,751,0,18,0,0,0,0,84,3,1.12e-26,1.06e-09,0.999999999,16,65,3,0,0,0,0,0,0,0,0,84,84,4305,759197,759.197,"7$3=18",19,618.604,17.874,5444.878,0.426751310779704,167.251780269779,18,0.1,0.1,0.330587655514853,0.267020868700427,0.26348938054407
"85",2,1,2,35,"10$4=34",10,4,34,0,8,9,14029,1,0,0,10523,750,2001,752,0,34,0,0,0,0,85,2,0.168395388,0.831591942,1.27e-05,6,66,7,0,0,0,0,0,0,0,0,85,85,14029,773226,773.226,"10$4=34",10,621.452,49.689,2927.685,0.166436231211176,221.01022271443,9,0.1,0.1,0.252586131659816,0.212758746344148,0.208333481309074
"86",2,1,2,36,"7$4=22",7,4,22,0,32,2,12321,1,0,0,8961,606,2001,750,0,22,-1,-26,0,0,86,1,0.96739412,0.03260588,4.22e-11,3,67,27,0,0,0,0,0,0,0,0,86,86,12321,785547,785.547,"7$4=22",3,550.127,257.828,807.955,0.0243452877536068,363.525617251803,2,0.1,0.1,0.179766215485567,0.11853493347494,0.0879192924696272
"87",2,1,2,37,"7$5=25",7,5,25,0,8,9,4489,1,0,0,997,737,2002,750,0,25,0,0,0,0,87,3,0.000595941,0.194969331,0.804434728,1,68,7,0,0,0,0,0,0,0,0,87,87,4489,790036,790.036,"7$5=25",10,619.709,53.2569999999999,2886.056,0.168265308175735,217.599668072555,9,0.1,0.1,0.24845274825093,0.212072254795035,0.20802997774438
"88",2,1,2,38,"7$3=18",7,3,18,0,4,19,4775,1,0,0,1160,857,2002,753,0,18,0,0,0,0,88,3,3.43e-28,3.25e-10,1,17,69,3,0,0,0,0,0,0,0,0,88,88,4775,794811,794.811,"7$3=18",20,654.218,35.614,6121.544,0.378245485154907,203.519837893548,19,0.1,0.1,0.274251181171973,0.267382384324004,0.267020868700427
"89",2,1,2,39,"8$6=33",8,6,33,0,16,4,14680,1,0,0,11336,591,2000,751,0,33,0,0,0,0,89,1,0.999426397,0.000573603,3.7e-16,5,70,13,0,0,0,0,0,0,0,0,89,89,14680,809491,809.491,"8$6=33",5,530.28,117.128,1269.012,0.064840087047651,253.795699627387,4,0.1,0.1,0.208933584859987,0.163354020867939,0.151959129869927
"90",2,1,2,40,"9$6=39",9,6,39,0,32,2,8812,1,0,0,5185,873,2000,751,0,39,-1,-22,0,0,90,2,0.285881167,0.710897052,0.003221781,1,71,27,0,0,0,0,0,0,0,0,90,90,8812,818303,818.303,"9$6=39",3,520.763,249.787,770.55,0.0250887655986145,348.863679620962,2,0.1,0.1,0.18078500646414,0.119658075982251,0.0890946107413062
"91",2,1,3,1,"9$7=42",9,7,42,0,0,0,10307,1,0,0,6635,918,2000,751,0,42,0,0,0,0,91,0,0,0,0,0,0,0,0,0,0,0,0,0,0,0,91,91,10307,828610,828.61,"9$7=42",1,0,NA,0,0,1,0,0.1,0.1,0,0,0
"92",2,1,3,2,"7$3=18",7,3,18,0,4,20,4491,1,0,0,890,849,2000,750,0,18,0,0,0,0,92,3,9.42e-30,8.78e-11,1,18,72,2,0,0,0,0,0,0,0,0,92,92,4491,833101,833.101,"7$3=18",21,692.508,38.29,6887.344,0.364756741885614,226.617651477785,20,0.1,0.1,0.269267863003485,0.267472169023027,0.267382384324004
"93",2,1,3,3,"10$4=34",10,4,34,0,8,10,6986,1,0,0,3503,727,2000,754,0,34,0,0,0,0,93,2,0.053458936,0.917291484,0.029249581,7,73,6,0,0,0,0,0,0,0,0,93,93,6986,840087,840.087,"10$4=34",11,688.313,66.861,3596.295,0.165358275919916,253.963139881802,10,0.1,0.1,0.23571191851188,0.214845398359397,0.212758746344148
"94",2,1,3,4,"11$4=38",11,4,38,0,16,5,12800,1,0,0,9082,966,2000,750,0,38,0,0,0,0,94,1,0.688653475,0.311341127,5.4e-06,6,74,14,0,0,0,0,0,0,0,0,94,94,12800,852887,852.887,"11$4=38",6,692.243,120.524,1962.197,0.0715169101778726,302.215436702703,5,0.1,0.1,0.207720894721558,0.168785285644435,0.16099816382901
"95",2,1,3,5,"7$5=25",7,5,25,0,8,10,4477,1,0,0,1017,705,2001,751,0,25,0,0,0,0,95,3,1.34e-05,0.037212423,0.962774189,2,75,6,0,0,0,0,0,0,0,0,95,95,4477,857364,857.364,"7$5=25",11,687.037,67.3280000000001,3559.336,0.166491316109931,251.517017512528,10,0.1,0.1,0.235340842907341,0.214187580987063,0.212072254795035
"96",2,1,3,6,"7$3=18",7,3,18,0,4,21,4386,1,0,0,836,793,2000,754,0,18,0,0,0,0,96,3,2.81e-31,2.46e-11,1,19,76,3,0,0,0,0,0,0,0,0,96,96,4386,861750,861.75,"7$3=18",22,721.157,28.649,7488.973,0.390860662491246,223.533711039083,21,0.1,0.1,0.290211286234467,0.268505765259911,0.267472169023027
"97",2,1,3,7,"9$5=35",9,5,35,0,16,5,4330,1,0,0,826,750,2001,750,0,35,-1,-15,0,0,97,3,9.52e-08,0.00459034,0.995409565,4,77,14,0,0,0,0,0,0,0,0,97,97,4330,866080,866.08,"9$5=35",6,676.71,120.109,1924.613,0.0720474992935787,298.819281037552,5,0.1,0.1,0.207866536297276,0.169773973443234,0.162155460872425
"98",2,1,3,8,"8$3=21",8,3,21,0,32,2,5837,1,0,0,2433,649,2001,751,0,21,-1,-14,0,0,98,2,0.036848747,0.958327753,0.0048235,2,78,27,0,0,0,0,0,0,0,0,98,98,5837,871917,871.917,"8$3=21",3,493.78,251.772,745.552,0.0253680077368209,342.84575427849,2,0.1,0.1,0.180529442852101,0.120780994830772,0.0909067708201072
"99",2,1,3,9,"3$3=6",3,3,6,0,16,5,4167,1,0,0,900,510,2001,753,0,6,-1,-13,0,0,99,3,1.44e-08,0.003636976,0.99636301,4,79,14,0,0,0,0,0,0,0,0,99,99,4167,876084,876.084,"3$3=6",6,668.837,121.192,1903.92,0.0722396932524488,297.369095425037,5,0.1,0.1,0.207487916465413,0.170025414895045,0.162532914580972
"100",2,1,3,10,"7$3=18",7,3,18,0,4,22,4385,1,0,0,811,819,2003,750,0,18,0,0,0,0,100,3,1.29e-32,8.05e-12,1,20,80,3,0,0,0,0,0,0,0,0,100,100,4385,880469,880.469,"7$3=18",23,739.876,18.7190000000001,7900.791,0.453375013653457,201.058532994924,22,0.1,0.1,0.326250271615748,0.271016395971034,0.268505765259911
"101",2,1,3,11,"10$4=34",10,4,34,0,8,11,6878,0,0,0,2890,736,2500,750,0,33,0,0,0,0,101,2,0.011084938,0.835215822,0.15369924,8,81,7,0,0,0,0,0,0,0,0,101,101,6878,887347,887.347,"10$4=34",12,735.573,47.26,4116.155,0.191331434220499,242.392302552181,11,0.1,0.1,0.255650610441841,0.2182458326996,0.214845398359397
"102",2,1,3,12,"6$6=21",6,6,21,0,0,1,13650,1,0,0,10144,750,2001,752,0,21,0,0,0,0,102,0,0,0,0,0,0,0,0,0,0,0,0,0,0,0,102,102,13650,900997,900.997,"6$6=21",2,843.099,843.099,843.099,0.00639132746208906,843.099,1,0.1,0.1,0.148361275002417,0.0741806375012086,0
"103",2,1,3,13,"7$5=25",7,5,25,0,8,11,4473,1,0,0,847,873,2000,750,0,25,0,0,0,0,103,3,2.94e-07,0.006548447,0.993451259,3,82,6,0,0,0,0,0,0,0,0,103,103,4473,905470,905.47,"7$5=25",12,735.143,48.106,4088.502,0.191151453192943,242.272026688539,11,0.1,0.1,0.254558232406641,0.217551801938695,0.214187580987063
"104",2,1,3,14,"7$3=18",7,3,18,0,4,23,4174,1,0,0,594,825,2000,753,0,18,0,0,0,0,104,3,2.04e-33,3.65e-12,1,21,83,2,0,0,0,0,0,0,0,0,104,104,4174,909644,909.644,"7$3=18",24,769.051,29.175,8571.816,0.433053602872598,222.49581050976,23,0.1,0.1,0.288817390371891,0.27175810407107,0.271016395971034
"105",2,1,3,15,"8$6=33",8,6,33,0,16,5,20928,1,0,0,17540,630,2003,752,0,33,-1,-7,0,0,105,1,0.991644009,0.008355991,4.33e-11,6,84,13,0,0,0,0,0,0,0,0,105,105,20928,930572,930.572,"8$6=33",6,651.361,121.081,1874.417,0.0730281796106233,293.01616118799,5,0.1,0.1,0.207526506628536,0.170716101828038,0.163354020867939
"106",2,1,3,16,"13$2=25",13,2,25,0,0,0,6328,1,0,0,2614,961,2000,751,0,25,0,0,0,0,106,0,0,0,0,0,0,0,0,0,0,0,0,0,0,0,106,106,6328,936900,936.9,"13$2=25",1,0,NA,0,0,1,0,0.1,0.1,0,0,0
"107",2,1,3,17,"6$2=11",6,2,11,0,0,0,4797,1,0,0,1397,647,2001,750,0,11,0,0,0,0,107,0,0,0,0,0,0,0,0,0,0,0,0,0,0,0,107,107,4797,941697,941.697,"6$2=11",1,0,NA,0,0,1,0,0.1,0.1,0,0,0
"108",2,1,3,18,"7$3=18",7,3,18,0,4,24,4264,1,0,0,730,778,2002,751,0,18,0,0,0,0,108,3,1.06e-33,2.58e-12,1,22,85,1,0,0,0,0,0,0,0,0,108,108,4264,945961,945.961,"7$3=18",25,805.368,36.317,9443.424,0.410946596734125,248.862675228109,24,0.1,0.1,0.272891064466854,0.271803422486901,0.27175810407107
"109",2,1,3,19,"10$4=34",10,4,34,0,8,12,5394,1,0,0,1864,776,2001,750,0,34,0,0,0,0,109,2,0.001683635,0.605001334,0.393315031,9,86,4,0,0,0,0,0,0,0,0,109,109,5394,951355,951.355,"10$4=34",13,799.581,64.008,4884.251,0.187071877901485,276.966113726589,12,0.1,0.1,0.23806129136429,0.21977009875073,0.2182458326996
"110",2,1,3,20,"11$4=38",11,4,38,0,16,6,7101,1,0,0,3514,833,2001,750,0,38,-1,-2,0,0,110,2,0.213720043,0.777290099,0.008989858,1,87,12,0,0,0,0,0,0,0,0,110,110,7101,958456,958.456,"11$4=38",7,797.812,105.569,2595.611,0.0840064239725892,314.71161979872,6,0.1,0.1,0.213456844018363,0.17516693684071,0.168785285644435
"111",2,1,3,21,"7$5=25",7,5,25,0,8,12,4275,1,0,0,860,663,2000,750,0,25,0,0,0,0,111,3,6.83e-09,0.001229951,0.998770042,4,88,5,0,0,0,0,0,0,0,0,111,111,4275,962731,962.731,"7$5=25",13,792.404,57.261,4775.634,0.194464176786446,264.453932739995,12,0.1,0.1,0.244259940271943,0.219606274118175,0.217551801938695
"112",2,1,3,22,"10$6=45",10,6,45,0,4,0,10309,0,0,0,6298,753,2501,751,0,44,0,0,0,0,112,1,1,0,0,1,89,NA,0,0,0,0,0,0,0,0,112,112,10309,973040,973.04,"10$6=45",1,0,NA,0,0,1,0,0.1,0.1,0,0,0
"113",2,1,3,23,"9$5=35",9,5,35,0,16,6,4767,1,0,0,1066,945,2003,751,0,35,1,1,0,0,113,3,3.68e-09,0.001265073,0.998734923,5,90,12,0,0,0,0,0,0,0,0,113,113,4767,977807,977.807,"9$5=35",7,788.437,111.727,2594.975,0.0824055710745012,321.497243100164,6,0.1,0.1,0.210966154870536,0.175658570789991,0.169773973443234
"114",2,1,3,24,"10$5=40",10,5,40,0,32,3,5373,1,0,0,1786,830,2001,753,0,40,1,2,0,0,114,3,0.001435555,0.365858131,0.632706314,1,91,27,0,0,0,0,0,0,0,0,114,114,5373,983180,983.18,"10$5=40",4,781.42,232.472,1495.6,0.033288200056056,416.866688708558,3,0.1,0.1,0.183136937706956,0.134766992786595,0.118643677813141
"115",2,1,3,25,"3$3=6",3,3,6,0,16,6,4128,1,0,0,790,577,2004,754,0,6,1,3,0,0,115,3,5.13e-10,0.000852153,0.999147847,5,92,12,0,0,0,0,0,0,0,0,115,115,4128,987308,987.308,"3$3=6",7,780.061,111.224,2571.264,0.0827507178357896,319.527173351347,6,0.1,0.1,0.211162380426284,0.175902124256651,0.170025414895045
"116",2,1,3,26,"10$6=45",10,6,45,0,4,1,5173,1,0,0,1545,876,2000,750,0,45,0,0,0,0,116,2,0.05452782,0.94547218,0,1,93,3,0,0,0,0,0,0,0,0,116,116,5173,992481,992.481,"10$6=45",2,19.441,19.441,19.441,0.108009274717756,19.441,1,0.1,0.1,0.322762177761926,0.161381088880963,0
"117",2,1,3,27,"10$4=34",10,4,34,0,8,13,6662,1,0,0,2835,1072,2000,752,0,34,0,0,0,0,117,3,0.000176666,0.429597524,0.57022581,1,94,7,0,0,0,0,0,0,0,0,117,117,6662,999143,999.143,"10$4=34",14,847.369,47.788,5505.495,0.209075275385693,270.03469677734,13,0.1,0.1,0.254965600320921,0.222284063148601,0.21977009875073
"118",2,1,3,28,"7$4=22",7,4,22,0,32,3,13589,1,0,0,9908,926,2000,752,0,22,1,6,0,0,118,1,0.864004524,0.135995255,2.22e-07,4,95,27,0,0,0,0,0,0,0,0,118,118,13589,1012732,1012.732,"7$4=22",4,777.312,227.185,1489.51,0.0335575752119411,412.88446562089,3,0.1,0.1,0.183902678329022,0.134876869688461,0.11853493347494
"119",2,1,3,29,"7$5=25",7,5,25,0,8,13,4339,1,0,0,920,664,2002,750,0,25,0,0,0,0,119,3,1.51e-10,0.000245863,0.999754136,5,96,7,0,0,0,0,0,0,0,0,119,119,4339,1017071,1017.071,"7$5=25",14,846.744,54.34,5482.054,0.204426179515956,276.264634797868,13,0.1,0.1,0.247275442906103,0.221582643317313,0.219606274118175
"120",2,1,3,30,"10$6=45",10,6,45,0,4,2,5444,1,0,0,1912,777,2000,752,0,45,0,0,0,0,120,3,0.00265358,0.452604294,0.544742125,1,97,3,0,0,0,0,0,0,0,0,120,120,5444,1022515,1022.515,"10$6=45",3,49.475,30.034,79.509,0.131550993204502,37.956005083798,2,0.1,0.1,0.286617324054291,0.203126500605406,0.161381088880963
"121",2,1,3,31,"8$6=33",8,6,33,0,16,6,6312,1,0,0,2428,1128,2002,750,0,33,1,9,0,0,121,2,0.1144925,0.88299627,0.002511231,1,98,13,0,0,0,0,0,0,0,0,121,121,6312,1028827,1028.827,"8$6=33",7,749.616,98.255,2463.947,0.0875547619801269,298.068745059057,6,0.1,0.1,0.216691487624122,0.177284014084622,0.170716101828038
"122",2,1,3,32,"9$6=39",9,6,39,0,32,3,6860,1,0,0,3291,815,2002,750,0,39,1,10,0,0,122,2,0.034982051,0.819842861,0.145175088,2,99,27,0,0,0,0,0,0,0,0,122,122,6860,1035687,1035.687,"9$6=39",4,738.147,217.384,1422.702,0.0346766413113566,395.115010245882,3,0.1,0.1,0.185388001178868,0.136090557281405,0.119658075982251
"123",2,1,3,33,"10$2=19",10,2,19,0,0,0,5252,1,0,0,1674,825,2000,750,0,19,0,0,0,0,123,0,0,0,0,0,0,0,0,0,0,0,0,0,0,0,123,123,5252,1040939,1040.939,"10$2=19",1,0,NA,0,0,1,0,0.1,0.1,0,0,0
"124",2,1,3,34,"10$6=45",10,6,45,0,4,3,5007,1,0,0,1429,823,2002,751,0,45,0,0,0,0,124,3,0.00010383,0.145412393,0.854483777,2,100,2,0,0,0,0,0,0,0,0,124,124,5007,1045946,1045.946,"10$6=45",4,72.9059999999999,23.4309999999999,149.802,0.184554490724428,42.4062549723301,3,0.1,0.1,0.306389283413243,0.228942196307365,0.203126500605406
"125",2,1,3,35,"10$4=34",10,4,34,0,8,14,5158,1,0,0,1641,762,2000,753,0,34,0,0,0,0,125,3,8e-06,0.174816556,0.82517544,2,101,6,0,0,0,0,0,0,0,0,125,125,5158,1051104,1051.104,"10$4=34",15,899.33,51.961,6232.949,0.216720243312711,283.915926063807,14,0.1,0.1,0.24990722958264,0.224125607577537,0.222284063148601
"126",2,1,3,36,"11$4=38",11,4,38,0,16,7,7198,0,0,0,3178,767,2500,750,0,39,1,14,0,0,126,2,0.041424452,0.850877479,0.107698069,2,102,14,0,0,0,0,0,0,0,0,126,126,7198,1058302,1058.302,"11$4=38",8,897.658,99.8459999999999,3294.533,0.0948983923576249,330.871333988912,7,0.1,0.1,0.215959878060681,0.180266054493207,0.17516693684071
"127",2,1,3,37,"7$5=25",7,5,25,0,8,14,4314,1,0,0,813,746,2002,750,0,25,0,0,0,0,127,3,3.28e-12,4.72e-05,0.999952792,6,103,6,0,0,0,0,0,0,0,0,127,127,4314,1062616,1062.616,"7$5=25",15,892.289,45.545,6119.684,0.224506861600942,272.443271190797,14,0.1,0.1,0.25795327596149,0.224007352160258,0.221582643317313
"128",2,1,3,38,"10$6=45",10,6,45,0,4,4,4934,1,0,0,1408,769,2002,752,0,45,0,0,0,0,128,3,3.66e-06,0.044543104,0.955453231,3,104,3,0,0,0,0,0,0,0,0,128,128,4934,1067550,1067.55,"10$6=45",5,94.51,21.604,236.218,0.229516692884596,47.0898545768271,4,0.1,0.1,0.31334280618696,0.245822318283284,0.228942196307365
"129",2,1,3,39,"9$5=35",9,5,35,0,16,7,5242,1,0,0,1547,937,2003,752,0,35,0,0,0,0,129,3,1.03e-10,0.00041164,0.99958836,6,105,14,0,0,0,0,0,0,0,0,129,129,5242,1072792,1072.792,"9$5=35",8,883.422,94.9849999999999,3259.87,0.0961960677233537,325.535372896111,7,0.1,0.1,0.218248396671401,0.180982299025167,0.175658570789991
"130",2,1,3,40,"8$3=21",8,3,21,0,32,3,5656,1,0,0,2295,607,2002,750,0,21,1,18,0,0,130,2,0.008684239,0.977633059,0.013682702,3,106,27,0,0,0,0,0,0,0,0,130,130,5656,1078448,1078.448,"8$3=21",4,700.311,206.531,1365.145,0.0357966361090758,378.864428108494,3,0.1,0.1,0.187142337871352,0.137371330590917,0.120780994830772
"131",2,1,4,1,"3$3=6",3,3,6,0,16,7,4910,1,0,0,1512,640,2001,753,0,6,0,0,0,0,131,3,1.88e-11,0.000289187,0.999710813,6,107,14,0,0,0,0,0,0,0,0,131,131,4910,1083358,1083.358,"3$3=6",8,876.111,96.05,3243.614,0.0960010706896879,325.988988347881,7,0.1,0.1,0.217733215592845,0.181131010673675,0.175902124256651
"132",2,1,4,2,"10$6=45",10,6,45,0,4,5,6012,1,0,0,1366,1882,2001,759,0,45,0,0,0,0,132,3,8.93e-08,0.012328295,0.987671616,4,108,3,0,0,0,0,0,0,0,0,132,132,6012,1089370,1089.37,"10$6=45",6,116.33,21.8199999999999,345.318,0.261550317729917,53.5626529506534,5,0.1,0.1,0.312477108933628,0.256931450058341,0.245822318283284
"133",2,1,4,3,"10$4=34",10,4,34,0,8,15,4514,1,0,0,1041,720,2000,750,0,34,0,0,0,0,133,3,3.21e-07,0.053181126,0.946818554,3,109,7,0,0,0,0,0,0,0,0,133,133,4514,1093884,1093.884,"10$4=34",16,942.11,42.78,6874.649,0.238394256180311,277.596534461064,15,0.1,0.1,0.261939561226876,0.226488979680621,0.224125607577537
"134",2,1,4,4,"3$2=5",3,2,5,0,0,0,5649,1,0,0,925,1968,2000,753,0,5,0,0,0,0,134,0,0,0,0,0,0,0,0,0,0,0,0,0,0,0,134,134,5649,1099533,1099.533,"3$2=5",1,0,NA,0,0,1,0,0.1,0.1,0,0,0
"135",2,1,4,5,"7$5=25",7,5,25,0,8,15,4217,1,0,0,815,649,2000,750,0,25,0,0,0,0,135,3,6.96e-14,9.33e-06,0.999990668,7,110,6,0,0,0,0,0,0,0,0,135,135,4217,1103750,1103.75,"7$5=25",16,933.423,41.134,6736.694,0.244962771473023,268.480956002512,15,0.1,0.1,0.264492415258906,0.226537668603924,0.224007352160258
"136",2,1,4,6,"10$6=45",10,6,45,0,4,6,4294,1,0,0,811,728,2002,750,0,45,0,0,0,0,136,3,2.26e-09,0.002569566,0.997430432,5,111,2,0,0,0,0,0,0,0,0,136,136,4294,1108044,1108.044,"10$6=45",7,135.004,18.6740000000002,457.362000000001,0.307997449094038,55.6402134754353,6,0.1,0.1,0.326474091477561,0.26686611311823,0.256931450058341
"137",2,1,4,7,"8$6=33",8,6,33,0,16,7,5824,0,0,0,1690,875,2501,754,0,38,0,0,0,0,137,2,0.009111146,0.540291473,0.450597381,2,112,13,0,0,0,0,0,0,0,0,137,137,5824,1113868,1113.868,"8$6=33",8,834.657,85.0409999999999,3059.234,0.102988801159151,298.58304795322,7,0.1,0.1,0.22348378158519,0.183058985022193,0.177284014084622
"138",2,1,4,8,"4$3=9",4,3,9,0,0,1,8721,0,0,0,4871,596,2501,750,0,10,0,0,0,0,138,0,0,0,0,0,0,0,0,0,0,0,0,0,0,0,138,138,8721,1122589,1122.589,"4$3=9",2,1028.982,1028.982,1028.982,0.00550419950228116,1028.982,1,0.1,0.1,0.144113743066485,0.0720568715332423,0
"139",2,1,4,9,"12$7=63",12,7,63,0,0,0,9848,0,0,0,5276,1319,2501,750,0,58,0,0,0,0,139,0,0,0,0,0,0,0,0,0,0,0,0,0,0,0,139,139,9848,1132437,1132.437,"12$7=63",1,0,NA,0,0,1,0,0.1,0.1,0,0,0
"140",2,1,4,10,"10$6=45",10,6,45,0,4,7,4495,1,0,0,1045,697,2001,750,0,45,0,0,0,0,140,3,7.21e-11,0.000667913,0.999332087,6,113,1,0,0,0,0,0,0,0,0,140,140,4495,1136932,1136.932,"10$6=45",8,163.892,28.8879999999999,659.578,0.285425499397164,74.3956516813657,7,0.1,0.1,0.289573397883162,0.269704523713846,0.26686611311823
"141",2,1,4,11,"10$4=34",10,4,34,0,8,16,4611,1,0,0,1196,663,2000,750,0,34,0,0,0,0,141,3,1.24e-08,0.017472656,0.982527331,4,114,4,0,0,0,0,0,0,0,0,141,141,4611,1141543,1141.543,"10$4=34",17,989.769,47.6589999999999,7637.193,0.244199192404986,292.005587834586,16,0.1,0.1,0.255131959198506,0.228173860828732,0.226488979680621
"142",2,1,4,12,"11$4=38",11,4,38,0,16,8,6472,0,0,0,2186,1034,2500,750,0,39,0,0,0,0,142,2,0.004234128,0.579838107,0.415927765,3,115,12,0,0,0,0,0,0,0,0,142,142,6472,1148015,1148.015,"11$4=38",9,987.371,89.7130000000002,4012.237,0.10741697654848,338.190310974972,8,0.1,0.1,0.220922926903274,0.184783484760992,0.180266054493207
"143",2,1,4,13,"7$5=25",7,5,25,0,8,16,4146,1,0,0,745,647,2002,750,0,25,0,0,0,0,143,3,1.55e-15,1.85e-06,0.999998153,8,116,5,0,0,0,0,0,0,0,0,143,143,4146,1152161,1152.161,"7$5=25",17,981.834,48.4110000000001,7511.27,0.246529473040823,287.998742082089,16,0.1,0.1,0.254171115568672,0.228163165484203,0.226537668603924
"144",2,1,4,14,"10$6=45",10,6,45,0,4,8,5148,1,0,0,1226,1169,2001,750,0,45,0,0,0,0,144,3,2.16e-12,0.000190487,0.999809513,7,117,3,0,0,0,0,0,0,0,0,144,144,5148,1157309,1157.309,"10$6=45",9,184.269,20.377,822.594,0.33077516580946,74.5106634993577,8,0.1,0.1,0.318509036591622,0.275127247366933,0.269704523713846
"145",2,1,4,15,"9$5=35",9,5,35,0,16,8,4431,1,0,0,866,808,2000,754,0,35,0,0,0,0,145,3,2.36e-12,8.87e-05,0.999911299,7,118,12,0,0,0,0,0,0,0,0,145,145,4431,1161740,1161.74,"9$5=35",9,972.37,88.9480000000001,3971.454,0.108256560650512,334.762249251049,8,0.1,0.1,0.22132930059978,0.185465299200124,0.180982299025167
"146",2,1,4,16,"10$5=40",10,5,40,0,32,4,4676,1,0,0,1128,793,2002,751,0,40,0,0,0,0,146,3,3.87e-05,0.088552923,0.911408386,2,119,27,0,0,0,0,0,0,0,0,146,146,4676,1166416,1166.416,"10$5=40",5,964.656,183.236,2228.544,0.0443550037437145,424.883227825111,4,0.1,0.1,0.191369215947453,0.146087437418767,0.134766992786595
"147",2,1,4,17,"3$3=6",3,3,6,0,16,8,4566,1,0,0,1296,514,2001,753,0,6,0,0,0,0,147,3,3.99e-13,7.76e-05,0.999922362,7,120,12,0,0,0,0,0,0,0,0,147,147,4566,1170982,1170.982,"3$3=6",9,963.735,87.624,3944.606,0.108862840001127,332.370015114777,8,0.1,0.1,0.222044311036939,0.18567693293626,0.181131010673675
"148",2,1,4,18,"10$6=45",10,6,45,0,4,9,4459,1,0,0,1033,671,2001,751,0,45,0,0,0,0,148,3,6.16e-14,4.93e-05,0.99995074,8,121,3,0,0,0,0,0,0,0,0,148,148,4459,1175441,1175.441,"10$6=45",10,202.401,18.1320000000001,985.782,0.374050134728146,74.9317734547827,9,0.1,0.1,0.329232472359127,0.280537769866152,0.275127247366933
"149",2,1,4,19,"10$4=34",10,4,34,0,8,17,4462,1,0,0,1048,657,2001,753,0,34,0,0,0,0,149,3,4.77e-10,0.00542271,0.99457729,5,122,7,0,0,0,0,0,0,0,0,149,149,4462,1179903,1179.903,"10$4=34",18,1028.129,38.36,8289.313,0.268209597949289,283.059194603866,17,0.1,0.1,0.269144260942379,0.230449994168379,0.228173860828732
"150",2,1,4,20,"7$4=22",7,4,22,0,32,4,5628,1,0,0,2193,679,2000,754,0,22,0,0,0,0,150,2,0.221209765,0.776378067,0.002412168,1,123,27,0,0,0,0,0,0,0,0,150,150,5628,1185531,1185.531,"7$4=22",5,950.111,172.799,2180.706,0.0457047996970688,409.454406850568,4,0.1,0.1,0.193508280569985,0.146603151864766,0.134876869688461
"151",2,1,4,21,"7$5=25",7,5,25,0,8,17,4178,1,0,0,784,641,2001,750,0,25,0,0,0,0,151,3,3.82e-17,3.94e-07,0.999999606,9,124,7,0,0,0,0,0,0,0,0,151,151,4178,1189709,1189.709,"7$5=25",18,1019.382,37.548,8149.586,0.271908614990827,277.953160571996,17,0.1,0.1,0.270598320303862,0.230520674085295,0.228163165484203
"152",2,1,4,22,"10$6=45",10,6,45,0,4,10,4402,1,0,0,895,752,2002,750,0,45,0,0,0,0,152,3,2.38e-15,1.32e-05,0.999986845,9,125,3,0,0,0,0,0,0,0,0,152,152,4402,1194111,1194.111,"10$6=45",11,221.071,18.6700000000001,1172.482,0.399560432426658,79.1444902843913,10,0.1,0.1,0.326494024237887,0.284715611172673,0.280537769866152
"153",2,1,4,23,"8$6=33",8,6,33,0,16,8,5616,0,0,0,1524,839,2500,751,0,38,0,0,0,0,153,3,0.000664842,0.257080791,0.742254367,1,126,13,0,0,0,0,0,0,0,0,153,153,5616,1199727,1199.727,"8$6=33",9,920.516,85.8590000000002,3746.106,0.113137500460185,315.482904945713,8,0.1,0.1,0.223021361684714,0.187499249095806,0.183058985022193
"154",2,1,4,24,"9$6=39",9,6,39,0,32,4,5605,1,0,0,1983,864,2004,751,0,39,0,0,0,0,154,3,0.001188566,0.380912868,0.617898566,1,127,27,0,0,0,0,0,0,0,0,154,154,5605,1205332,1205.332,"9$6=39",5,907.792,169.645,2101.282,0.0466689588699427,397.628900164773,4,0.1,0.1,0.194189675833186,0.147710380991761,0.136090557281405
"155",2,1,4,25,"9$4=30",9,4,30,0,0,1,8465,1,0,0,4768,943,2001,750,0,30,0,0,0,0,155,0,0,0,0,0,0,0,0,0,0,0,0,0,0,0,155,155,8465,1213797,1213.797,"9$4=30",2,1128.226,1128.226,1128.226,0.00513692141758646,1128.226,1,0.1,0.1,0.142231158933222,0.071115579466611,0
"156",2,1,4,26,"10$6=45",10,6,45,0,4,11,4836,1,0,0,1449,633,2001,751,0,45,0,0,0,0,156,3,8.76e-17,4.47e-06,0.999995526,10,128,2,0,0,0,0,0,0,0,0,156,156,4836,1218633,1218.633,"10$6=45",12,245.593,24.5219999999999,1442.224,0.384486159058326,93.4190439764072,11,0.1,0.1,0.302599618737459,0.286205945136406,0.284715611172673
"157",2,1,4,27,"10$4=34",10,4,34,0,8,18,4592,1,0,0,1156,681,2000,753,0,34,0,0,0,0,157,3,1.57e-11,0.001742004,0.998257996,6,129,6,0,0,0,0,0,0,0,0,157,157,4592,1223225,1223.225,"10$4=34",19,1071.451,43.3220000000001,9069.109,0.273416425083432,296.445855431109,18,0.1,0.1,0.261129556802173,0.23206470799121,0.230449994168379
"158",2,1,4,28,"11$4=38",11,4,38,0,16,9,5090,1,0,0,1568,768,2000,750,0,38,0,0,0,0,158,3,0.00034973,0.296773921,0.702876349,1,130,14,0,0,0,0,0,0,0,0,158,158,5090,1228315,1228.315,"11$4=38",10,1067.671,80.3,4734.937,0.121164613825006,340.108516748673,9,0.1,0.1,0.226292426089569,0.18893437889385,0.184783484760992
"159",2,1,4,29,"7$5=25",7,5,25,0,8,18,4260,1,0,0,882,624,2000,751,0,25,0,0,0,0,159,3,8.96e-19,9.01e-08,0.99999991,10,131,6,0,0,0,0,0,0,0,0,159,159,4260,1232575,1232.575,"7$5=25",19,1062.248,42.866,8921.174,0.276597698002929,291.800355088941,18,0.1,0.1,0.261810057951552,0.232167483762467,0.230520674085295
"160",2,1,4,30,"10$6=45",10,6,45,0,4,12,4632,1,0,0,1185,694,2000,750,0,45,0,0,0,0,160,3,2.19e-18,1.23e-06,0.999998772,11,132,3,0,0,0,0,0,0,0,0,160,160,4632,1237207,1237.207,"10$6=45",13,264.167,18.5740000000001,1665.112,0.425242310946044,93.114906869382,12,0.1,0.1,0.326974266776716,0.289341969877968,0.286205945136406
"161",2,1,4,31,"9$5=35",9,5,35,0,16,9,4737,1,0,0,955,1026,2000,754,0,35,0,0,0,0,161,3,4.89e-14,2.02e-05,0.999979846,8,133,14,0,0,0,0,0,0,0,0,161,161,4737,1241944,1241.944,"9$5=35",10,1052.574,80.2040000000001,4693.29,0.12167868635884,338.032185751182,9,0.1,0.1,0.226351691661434,0.189553938446255,0.185465299200124
"162",2,1,4,32,"8$3=21",8,3,21,0,32,4,6514,1,0,0,3135,622,2004,750,0,21,0,0,0,0,162,2,0.002599294,0.970434478,0.026966228,4,134,27,0,0,0,0,0,0,0,0,162,162,6514,1248458,1248.458,"8$3=21",5,870.321,170.01,2045.185,0.0471474231623933,391.412965252734,4,0.1,0.1,0.194109938338155,0.148719052140364,0.137371330590917
"163",2,1,4,33,"3$3=6",3,3,6,0,16,9,3969,1,0,0,703,513,2001,750,0,6,0,0,0,0,163,3,7.2e-15,1.46e-05,0.999985408,8,135,14,0,0,0,0,0,0,0,0,163,163,3969,1252427,1252.427,"3$3=6",10,1045.18,81.4449999999999,4677.611,0.12129564815773,339.004865957294,9,0.1,0.1,0.225593148172715,0.189668554459906,0.18567693293626
"164",2,1,4,34,"10$6=45",10,6,45,0,4,13,4284,1,0,0,801,728,2002,750,0,45,0,0,0,0,164,3,5.19e-20,2.77e-07,0.999999723,12,136,3,0,0,0,0,0,0,0,0,164,164,4284,1256711,1256.711,"10$6=45",14,283.671,19.5039999999999,1918.664,0.443341290963354,98.1674814745228,13,0.1,0.1,0.322466692558771,0.291708021498025,0.289341969877968
"165",2,1,4,35,"10$4=34",10,4,34,0,8,19,4242,1,0,0,827,663,2000,750,0,34,0,0,0,0,165,3,5.53e-13,0.000512716,0.999487284,7,137,7,0,0,0,0,0,0,0,0,165,165,4242,1260953,1260.953,"10$4=34",20,1109.179,37.7280000000001,9785.941,0.292233572899593,293.813335068051,19,0.1,0.1,0.270272116952489,0.233975078439274,0.23206470799121
"166",2,1,4,36,"9$3=24",9,3,24,0,0,1,8310,0,0,0,4455,601,2500,752,0,23,0,0,0,0,166,0,0,0,0,0,0,0,0,0,0,0,0,0,0,0,166,166,8310,1269263,1269.263,"9$3=24",2,1258.832,1258.832,1258.832,0.00473177591405798,1258.832,1,0.1,0.1,0.140054127048049,0.0700270635240243,0
"167",2,1,4,37,"7$5=25",7,5,25,0,8,19,4121,1,0,0,737,631,2000,751,0,25,0,0,0,0,167,3,2.13e-20,1.97e-08,0.99999998,11,138,6,0,0,0,0,0,0,0,0,167,167,4121,1273384,1273.384,"7$5=25",20,1103.057,40.809,9696.545,0.288055915488148,297.753051162432,19,0.1,0.1,0.265013834744092,0.233809801311548,0.232167483762467
"168",2,1,4,38,"10$6=45",10,6,45,0,4,14,4233,1,0,0,835,641,2002,753,0,45,0,0,0,0,168,3,1.5e-21,6.8e-08,0.999999932,13,139,2,0,0,0,0,0,0,0,0,168,168,4233,1277617,1277.617,"10$6=45",15,304.577,20.9059999999999,2211.348,0.450697343751312,105.821515427969,14,0.1,0.1,0.316228024621651,0.293342688372934,0.291708021498025
"169",2,1,4,39,"8$6=33",8,6,33,0,16,9,5456,0,0,0,1443,761,2500,750,0,38,0,0,0,0,169,3,4.82e-05,0.119413437,0.880538334,2,140,13,0,0,0,0,0,0,0,0,169,169,5456,1283073,1283.073,"8$6=33",10,1003.862,83.346,4496.22,0.122914993829243,331.582889987672,9,0.1,0.1,0.22446213081507,0.191195537267733,0.187499249095806
"170",2,1,4,40,"4$2=7",4,2,7,0,0,0,4827,1,0,0,1506,566,2000,752,0,7,0,0,0,0,170,0,0,0,0,0,0,0,0,0,0,0,0,0,0,0,170,170,4827,1287900,1287.9,"4$2=7",1,0,NA,0,0,1,0,0.1,0.1,0,0,0
"171",2,1,5,1,"5$2=9",5,2,9,0,0,0,5371,1,0,0,1881,737,2000,751,0,9,0,0,0,0,171,0,0,0,0,0,0,0,0,0,0,0,0,0,0,0,171,171,5371,1293271,1293.271,"5$2=9",1,0,NA,0,0,1,0,0.1,0.1,0,0,0
"172",2,1,5,2,"10$6=45",10,6,45,0,4,15,4517,1,0,0,1067,697,2001,750,0,45,0,0,0,0,172,3,4.11e-23,1.89e-08,0.999999981,14,141,1,0,0,0,0,0,0,0,0,172,172,4517,1297788,1297.788,"10$6=45",16,324.748,20.171,2513.913,0.467125999468549,110.960901243329,15,0.1,0.1,0.319420570209785,0.294972555987737,0.293342688372934
"173",2,1,5,3,"10$4=34",10,4,34,0,8,20,6019,1,0,0,772,2495,2000,750,1,34,0,0,0,0,173,3,3.18e-14,0.000184125,0.999815875,8,142,4,0,0,0,0,0,0,0,0,173,173,6019,1303807,1303.807,"10$4=34",21,1152.033,42.8539999999998,10643.021,0.294221430774334,309.958956172826,20,0.1,0.1,0.26182810581888,0.235301413076398,0.233975078439274
"174",2,1,5,4,"11$4=38",11,4,38,0,16,10,4726,1,0,0,1075,897,2002,750,0,38,0,0,0,0,174,3,3.63e-05,0.155737526,0.844226223,2,143,12,0,0,0,0,0,0,0,0,174,174,4726,1308533,1308.533,"11$4=38",11,1147.889,80.2179999999998,5537.117,0.130904274972564,353.809435866476,10,0.1,0.1,0.226343042559283,0.192335166499798,0.18893437889385
"175",2,1,5,5,"7$5=25",7,5,25,0,8,20,4163,1,0,0,747,663,2000,751,0,25,0,0,0,0,175,3,5.77e-22,4.68e-09,0.999999995,12,144,5,0,0,0,0,0,0,0,0,175,175,4163,1312696,1312.696,"7$5=25",21,1142.369,39.3119999999999,10482.785,0.300398238981702,302.329205756116,20,0.1,0.1,0.267494805303389,0.235413849120683,0.233809801311548
"176",2,1,5,6,"10$6=45",10,6,45,0,4,16,4332,1,0,0,843,737,2000,750,0,45,0,0,0,0,176,3,1.19e-24,4.83e-09,0.999999995,15,145,3,0,0,0,0,0,0,0,0,176,176,4332,1317028,1317.028,"10$6=45",17,343.988,19.24,2821.753,0.487956959084243,114.630813792309,16,0.1,0.1,0.323714232608893,0.296663242847805,0.294972555987737
"177",2,1,5,7,"9$5=35",9,5,35,0,16,10,4215,1,0,0,716,745,2002,750,0,35,0,0,0,0,177,3,1.1e-15,4.18e-06,0.99999582,9,146,12,0,0,0,0,0,0,0,0,177,177,4215,1321243,1321.243,"9$5=35",11,1131.873,79.299,5486.28,0.131779879571108,350.702018932058,10,0.1,0.1,0.226915336697116,0.192950429196334,0.189553938446255
"178",2,1,5,8,"10$5=40",10,5,40,0,32,5,4702,1,0,0,1127,823,2000,750,0,40,0,0,0,0,178,3,8.7e-07,0.021096315,0.978902815,3,147,27,0,0,0,0,0,0,0,0,178,178,4702,1325945,1325.945,"10$5=40",6,1124.185,159.529,3026.189,0.0549945563925445,434.642966524792,5,0.1,0.1,0.196497564435581,0.154489125254902,0.146087437418767
"179",2,1,5,9,"3$3=6",3,3,6,0,16,10,3996,1,0,0,730,513,2000,751,0,6,0,0,0,0,179,3,1.48e-16,2.97e-06,0.999997034,9,148,12,0,0,0,0,0,0,0,0,179,179,3996,1329941,1329.941,"3$3=6",11,1122.694,77.5140000000001,5452.751,0.132756720099563,347.5625982993,10,0.1,0.1,0.228054022188827,0.193158142435262,0.189668554459906
"180",2,1,5,10,"10$6=45",10,6,45,0,4,17,4371,1,0,0,890,729,2000,750,0,45,0,0,0,0,180,3,4.51e-26,1.38e-09,0.999999999,16,149,3,0,0,0,0,0,0,0,0,180,180,4371,1334312,1334.312,"10$6=45",18,361.272,17.2839999999999,3115.581,0.51994403907025,115.153721080034,17,0.1,0.1,0.333795488935233,0.298726145408218,0.296663242847805
"181",2,1,5,11,"10$4=34",10,4,34,0,8,21,5057,1,0,0,1559,743,2003,750,0,34,0,0,0,0,181,3,2.12e-15,9.27e-05,0.999907338,9,150,7,0,0,0,0,0,0,0,0,181,181,5057,1339369,1339.369,"10$4=34",22,1187.595,35.5619999999999,11389.823,0.315586656449601,304.257125685424,21,0.1,0.1,0.274353320298139,0.237076499768295,0.235301413076398
"182",2,1,5,12,"7$4=22",7,4,22,0,32,5,7918,1,0,0,4517,649,2000,750,0,22,-1,-30,-1,-31,182,2,0.074536961,0.904306919,0.021156121,2,151,27,0,0,0,0,0,0,0,0,182,182,7918,1347287,1347.287,"7$4=22",6,1111.867,161.756,2989.486,0.055219316706967,431.668459504538,5,0.1,0.1,0.195972597849924,0.154831392862292,0.146603151864766
"183",2,1,5,13,"7$5=25",7,5,25,0,8,21,4257,1,0,0,830,671,2004,750,0,25,0,0,0,0,183,3,1.88e-23,1.29e-09,0.999999999,13,152,7,0,0,0,0,0,0,0,0,183,183,4257,1351544,1351.544,"7$5=25",22,1181.217,38.8480000000002,11298.593,0.311129657698116,308.355894499731,21,0.1,0.1,0.268291489605425,0.236908287324535,0.235413849120683
"184",2,1,5,14,"10$6=45",10,6,45,0,4,18,4865,1,0,0,1263,841,2005,754,0,45,0,0,0,0,184,3,1.62e-27,4.59e-10,1,17,153,3,0,0,0,0,0,0,0,0,184,184,4865,1356409,1356.409,"10$6=45",19,383.369,22.0970000000002,3513.327,0.504949355629785,127.838353289167,18,0.1,0.1,0.311384885364863,0.29939239487962,0.298726145408218
"185",2,1,5,15,"8$6=33",8,6,33,0,16,10,4803,1,0,0,1387,656,2004,753,0,33,0,0,0,0,185,3,3.75e-06,0.057991126,0.942005127,3,154,13,0,0,0,0,0,0,0,0,185,185,4803,1361212,1361.212,"8$6=33",11,1082.001,78.1389999999999,5277.61,0.133876834822523,342.32873957301,10,0.1,0.1,0.227651163812333,0.194509685135423,0.191195537267733
"186",2,1,5,16,"9$6=39",9,6,39,0,32,5,5351,1,0,0,717,1881,2000,751,0,39,-1,-26,-1,-29,186,3,3.74e-05,0.085145754,0.914816836,2,155,27,0,0,0,0,0,0,0,0,186,186,5351,1366563,1366.563,"9$6=39",6,1069.023,161.231,2907.437,0.0558258602312073,424.540429768918,5,0.1,0.1,0.196095460038885,0.155774560832948,0.147710380991761
"187",2,1,5,17,"9$2=17",9,2,17,0,0,0,5445,1,0,0,1355,1337,2001,750,0,17,0,0,0,0,187,0,0,0,0,0,0,0,0,0,0,0,0,0,0,0,187,187,5445,1372008,1372.008,"9$2=17",1,0,NA,0,0,1,0,0.1,0.1,0,0,0
"188",2,1,5,18,"10$6=45",10,6,45,0,4,19,4676,1,0,0,1075,849,2000,750,0,45,0,0,0,0,188,3,4.47e-29,1.33e-10,1,18,156,2,0,0,0,0,0,0,0,0,188,188,4676,1376684,1376.684,"10$6=45",20,403.644,20.2749999999999,3898.552,0.519279030003107,132.83078650587,19,0.1,0.1,0.318958706600481,0.300370710465663,0.29939239487962
"189",2,1,5,19,"10$4=34",10,4,34,0,8,22,4481,1,0,0,996,728,2001,753,0,34,0,0,0,0,189,3,2.14e-16,4.63e-05,0.999953678,10,157,6,0,0,0,0,0,0,0,0,189,189,4481,1381165,1381.165,"10$4=34",23,1229.391,41.7960000000003,12309.335,0.31498023255241,322.212167817771,22,0.1,0.1,0.263448375852303,0.238223103076296,0.237076499768295
"190",2,1,5,20,"11$4=38",11,4,38,0,16,11,6160,0,0,0,2153,751,2504,750,0,33,0,0,0,0,190,3,4.66e-06,0.106698324,0.893297014,3,158,14,0,0,0,0,0,0,0,0,190,190,6160,1387325,1387.325,"11$4=38",12,1226.681,78.7920000000001,6403.829,0.139838588979885,368.628321044496,11,0.1,0.1,0.227235069789474,0.195243491773938,0.192335166499798
"191",2,1,5,21,"7$5=25",7,5,25,0,8,22,4132,1,0,0,692,681,2004,753,0,25,0,0,0,0,191,3,1.21e-24,4.38e-10,1,14,159,6,0,0,0,0,0,0,0,0,191,191,4132,1391457,1391.457,"7$5=25",23,1221.13,39.913,12176.679,0.317877066974846,318.481776052989,22,0.1,0.1,0.266482736798276,0.238194132953828,0.236908287324535
"192",2,1,5,22,"10$6=45",10,6,45,0,4,20,4472,1,0,0,780,937,1999,754,0,45,0,0,0,0,192,3,1.27e-30,3.47e-11,1,19,160,3,0,0,0,0,0,0,0,0,192,192,4472,1395929,1395.929,"10$6=45",21,422.889,19.2450000000001,4283.452,0.538080994070061,136.272035785186,20,0.1,0.1,0.323690375720998,0.301481170715917,0.300370710465663
"193",2,1,5,23,"9$5=35",9,5,35,0,16,11,4352,1,0,0,913,687,2000,750,0,35,0,0,0,0,193,3,2.54e-17,1e-06,0.999999,10,161,14,0,0,0,0,0,0,0,0,193,193,4352,1400281,1400.281,"9$5=35",12,1210.911,79.038,6355.698,0.140174390458343,367.184866236345,11,0.1,0.1,0.227079572935712,0.195794524507948,0.192950429196334
"194",2,1,5,24,"8$3=21",8,3,21,0,32,5,6787,1,0,0,3347,681,2001,753,0,21,-1,-18,-1,-21,194,2,0.000690399,0.931742335,0.067567266,5,162,27,0,0,0,0,0,0,0,0,194,194,6787,1407068,1407.068,"8$3=21",6,1028.931,158.61,2838.235,0.0565532282396852,416.886649764271,5,0.1,0.1,0.196717133077951,0.156718732296629,0.148719052140364
"195",2,1,5,25,"3$3=6",3,3,6,0,16,11,3911,1,0,0,663,495,2000,751,0,6,0,0,0,0,195,3,4.91e-18,6.73e-07,0.999999327,10,163,14,0,0,0,0,0,0,0,0,195,195,3911,1410979,1410.979,"3$3=6",12,1203.732,81.038,6344.169,0.139403695718215,369.273245016835,11,0.1,0.1,0.225840122017654,0.195881640733795,0.193158142435262
"196",2,1,5,26,"10$6=45",10,6,45,0,4,21,4340,1,0,0,915,673,2000,750,0,45,0,0,0,0,196,3,3.91e-32,1.03e-11,1,20,164,3,0,0,0,0,0,0,0,0,196,196,4340,1415319,1415.319,"10$6=45",22,442.279,19.3899999999999,4690.642,0.551087542331757,141.122795402716,21,0.1,0.1,0.323002394420883,0.302459408157052,0.301481170715917
"197",2,1,5,27,"10$4=34",10,4,34,0,8,23,4322,1,0,0,836,729,2003,751,0,34,0,0,0,0,197,3,5.68e-17,3.09e-05,0.999969121,11,165,7,0,0,0,0,0,0,0,0,197,197,4322,1419641,1419.641,"10$4=34",24,1267.867,38.4760000000001,13194.283,0.326697252442956,326.675845345598,23,0.1,0.1,0.268940146374046,0.239502979880369,0.238223103076296
"198",2,1,5,28,"6$4=18",6,4,18,0,0,1,8749,1,0,0,5177,814,2002,753,0,18,0,0,0,0,198,0,0,0,0,0,0,0,0,0,0,0,0,0,0,0,198,198,8749,1428390,1428.39,"6$4=18",2,1324.342,1324.342,1324.342,0.00455512066262136,1324.342,1,0.1,0.1,0.139068104014325,0.0695340520071624,0
"199",2,1,5,29,"7$5=25",7,5,25,0,8,23,4412,1,0,0,970,689,2000,751,0,25,0,0,0,0,199,3,2.38e-25,2.35e-10,1,15,166,6,0,0,0,0,0,0,0,0,199,199,4412,1432802,1432.802,"7$5=25",24,1262.475,41.3449999999998,13127.614,0.322009631237929,331.430751896752,23,0.1,0.1,0.264157046238618,0.239275921007361,0.238194132953828
"200",2,1,5,30,"10$6=45",10,6,45,0,4,22,4202,1,0,0,698,745,2003,754,0,45,0,0,0,0,200,3,2.12e-33,3.47e-12,1,21,167,2,0,0,0,0,0,0,0,0,200,200,4202,1437004,1437.004,"10$6=45",23,463.964,21.6849999999999,5167.712,0.546764211010128,151.062350093965,22,0.1,0.1,0.313016709945132,0.302918421278273,0.302459408157052
"201",2,1,5,31,"8$6=33",8,6,33,0,16,11,4719,1,0,0,1359,607,2001,750,0,33,-1,-11,-1,-14,201,3,3.4e-07,0.031000918,0.968998742,4,168,13,0,0,0,0,0,0,0,0,201,201,4719,1441723,1441.723,"8$6=33",12,1162.512,80.511,6163.231,0.140792981299697,363.448102173854,11,0.1,0.1,0.226162514457985,0.197147420912304,0.194509685135423
"202",2,1,5,32,"5$3=12",5,3,12,0,0,1,6790,1,0,0,3403,633,2000,752,0,12,0,0,0,0,202,0,0,0,0,0,0,0,0,0,0,0,0,0,0,0,202,202,6790,1448513,1448.513,"5$3=12",2,1405.397,1405.397,1405.397,0.00435663055839242,1405.397,1,0.1,0.1,0.137930893514248,0.0689654467571238,0
"203",2,1,5,33,"11$3=30",11,3,30,0,0,1,5930,1,0,0,2600,576,2002,750,0,30,0,0,0,0,203,0,0,0,0,0,0,0,0,0,0,0,0,0,0,0,203,203,5930,1454443,1454.443,"11$3=30",2,1388.249,1388.249,1388.249,0.00439692920421302,1388.249,1,0.1,0.1,0.138164395665594,0.0690821978327968,0
"204",2,1,5,34,"10$6=45",10,6,45,0,4,23,4360,1,0,0,926,680,2000,751,0,45,0,0,0,0,204,3,3.52e-34,1.74e-12,1,22,169,1,0,0,0,0,0,0,0,0,204,204,4360,1458803,1458.803,"10$6=45",24,485.763,21.7990000000002,5669.089,0.549984199311668,158.988417389612,23,0.1,0.1,0.312560729608169,0.303320184125352,0.302918421278273
"205",2,1,5,35,"10$4=34",10,4,34,0,8,24,4918,1,0,0,1393,769,2003,751,0,34,0,0,0,0,205,3,3.54e-17,2.59e-05,0.999974065,12,170,4,0,0,0,0,0,0,0,0,205,205,4918,1463721,1463.721,"10$4=34",25,1311.947,44.0799999999999,14252.203,0.323727887110712,347.55673091665,24,0.1,0.1,0.260020778991768,0.240323691844825,0.239502979880369
"206",2,1,5,36,"11$4=38",11,4,38,0,16,12,5344,1,0,0,1778,814,2000,750,0,38,-1,-6,-1,-9,206,3,5.14e-07,0.063190967,0.936808519,4,171,12,0,0,0,0,0,0,0,0,206,206,5344,1469065,1469.065,"11$4=38",13,1308.421,81.74,7384.709,0.145536302553387,391.994178908682,12,0.1,0.1,0.225415218458756,0.197564393826616,0.195243491773938
"207",2,1,5,37,"7$5=25",7,5,25,0,8,24,3997,1,0,0,620,625,2000,750,0,25,0,0,0,0,207,3,1.31e-25,1.72e-10,1,16,172,5,0,0,0,0,0,0,0,0,207,207,3997,1473062,1473.062,"7$5=25",25,1302.735,40.26,14093.854,0.329801204061949,340.122843293971,24,0.1,0.1,0.26590830226238,0.240341216257562,0.239275921007361
"208",2,1,5,38,"10$6=45",10,6,45,0,4,24,4086,1,0,0,636,697,2000,751,0,45,0,0,0,0,208,3,1.8e-34,1.21e-12,1,23,173,3,0,0,0,0,0,0,0,0,208,208,4086,1477148,1477.148,"10$6=45",25,504.108,18.3449999999998,6109.369,0.580109648509812,158.284018864408,24,0.1,0.1,0.328134444814775,0.304312754552929,0.303320184125352
"209",2,1,5,39,"9$5=35",9,5,35,0,16,12,4214,1,0,0,687,774,2001,750,0,35,-1,-3,-1,-6,209,3,7.9e-19,2.34e-07,0.999999766,11,174,12,0,0,0,0,0,0,0,0,209,209,4214,1481362,1481.362,"9$5=35",13,1291.992,81.0810000000001,7328.67,0.146208073387456,389.534862589775,12,0.1,0.1,0.225813946729654,0.198103710832695,0.195794524507948
"210",2,1,5,40,"10$5=40",10,5,40,0,32,6,4784,1,0,0,771,1257,2000,754,0,40,-1,-2,-1,-5,210,3,2.2e-08,0.004390259,0.995609719,4,175,27,0,0,0,0,0,0,0,0,210,210,4784,1486146,1486.146,"10$5=40",7,1284.386,160.201,3987.395,0.0622794952798949,470.745859038997,6,0.1,0.1,0.196338102963948,0.160467550641909,0.154489125254902
"211",2,1,6,1,"3$3=6",3,3,6,0,16,12,4677,1,0,0,1465,457,2000,753,0,6,-1,-1,-1,-4,211,3,1.2e-19,2.13e-07,0.999999787,11,176,12,0,0,0,0,0,0,0,0,211,211,4677,1490823,1490.823,"3$3=6",13,1283.576,79.8440000000001,7302.297,0.146716995595161,387.872464191767,12,0.1,0.1,0.22657482840807,0.198242655170277,0.195881640733795
"212",2,1,6,2,"6$5=20",6,5,20,0,4,0,8038,0,0,0,4083,702,2501,750,0,25,0,0,0,0,212,1,1,0,0,1,177,NA,0,0,0,0,0,0,0,0,212,212,8038,1498861,1498.861,"6$5=20",1,0,NA,0,0,1,0,0.1,0.1,0,0,0
"213",2,1,6,3,"11$6=51",11,6,51,0,8,0,9325,0,0,0,5094,980,2500,750,0,49,0,0,0,0,213,1,1,0,0,1,178,NA,0,0,0,0,0,0,0,0,213,213,9325,1508186,1508.186,"11$6=51",1,0,NA,0,0,1,0,0.1,0.1,0,0,0
"214",2,1,6,4,"7$4=22",7,4,22,0,32,6,5882,1,0,0,2389,737,2000,754,0,22,1,2,-1,-1,214,2,0.010558708,0.7514872,0.237954093,3,179,27,0,0,0,0,0,0,0,0,214,214,5882,1514068,1514.068,"7$4=22",7,1278.648,166.781,3990.172,0.0614340291820358,477.946403238429,6,0.1,0.1,0.194823588309743,0.160544563640499,0.154831392862292
"215",2,1,6,5,"6$3=15",6,3,15,0,8,0,6706,1,0,0,3233,718,2000,753,0,15,0,0,0,0,215,1,1,0,0,1,180,NA,0,0,0,0,0,0,0,0,215,215,6706,1520774,1520.774,"6$3=15",1,0,NA,0,0,1,0,0.1,0.1,0,0,0
"216",2,1,6,6,"6$5=20",6,5,20,0,4,1,5429,1,0,0,2032,641,2003,750,0,20,0,0,0,0,216,2,0.033757683,0.966242317,0,1,181,3,0,0,0,0,0,0,0,0,216,216,5429,1526203,1526.203,"6$5=20",2,27.3419999999999,27.3419999999999,27.3419999999999,0.0836329258848964,27.3419999999999,1,0.1,0.1,0.293840679764243,0.146920339882121,0
"217",2,1,6,7,"8$6=33",8,6,33,0,16,12,4939,1,0,0,1320,863,2002,752,0,33,1,5,1,2,217,3,3.86e-08,0.018876891,0.98112307,5,182,13,0,0,0,0,0,0,0,0,217,217,4939,1531142,1531.142,"8$6=33",13,1251.931,89.4190000000001,7236.259,0.142362562830426,400.186028107841,12,0.1,0.1,0.221078526085361,0.198988275156385,0.197147420912304
"218",2,1,6,8,"9$6=39",9,6,39,0,32,6,6994,1,0,0,727,3513,2000,752,1,39,1,6,1,3,218,3,2.35e-06,0.028705113,0.971292538,3,183,27,0,0,0,0,0,0,0,0,218,218,6994,1538136,1538.136,"9$6=39",7,1240.596,171.573,3936.875,0.0610855767932843,479.976247699921,6,0.1,0.1,0.193771113875277,0.161202639838995,0.155774560832948
"219",2,1,6,9,"11$7=56",11,7,56,0,0,0,10537,0,0,0,6171,1111,2501,752,0,35,0,0,0,0,219,0,0,0,0,0,0,0,0,0,0,0,0,0,0,0,219,219,10537,1548673,1548.673,"11$7=56",1,0,NA,0,0,1,0,0.1,0.1,0,0,0
"220",2,1,6,10,"6$5=20",6,5,20,0,4,2,5078,1,0,0,1181,1145,2000,750,0,20,0,0,0,0,220,3,0.000793046,0.242563097,0.756643857,1,184,2,0,0,0,0,0,0,0,0,220,220,5078,1553751,1553.751,"6$5=20",3,54.8899999999999,27.548,82.4379999999999,0.132751837646136,37.7613876115362,2,0.1,0.1,0.293252183796587,0.195697621186943,0.146920339882121
"221",2,1,6,11,"11$6=51",11,6,51,0,8,1,6010,0,0,0,1407,1350,2501,750,0,56,0,0,0,0,221,2,0.048456131,0.951543869,0,1,185,6,0,0,0,0,0,0,0,0,221,221,6010,1559761,1559.761,"11$6=51",2,51.575,51.575,51.575,0.0519601711025743,51.575,1,0.1,0.1,0.250350459596677,0.125175229798339,0
"222",2,1,6,12,"11$4=38",11,4,38,0,16,13,6107,1,0,0,2282,1073,2000,750,0,38,1,10,1,7,222,3,3.49e-08,0.035847672,0.964152293,5,186,14,0,0,0,0,0,0,0,0,222,222,6107,1565868,1565.868,"11$4=38",14,1405.224,96.8029999999999,8643.148,0.143382308489256,440.955343379407,13,0.1,0.1,0.217373748628765,0.198979347741055,0.197564393826616
"223",2,1,6,13,"6$3=15",6,3,15,0,8,1,8974,1,0,0,5502,718,2000,752,0,15,0,0,0,0,223,2,0.136326587,0.863673413,0,1,187,6,0,0,0,0,0,0,0,0,223,223,8974,1574842,1574.842,"6$3=15",2,54.0680000000002,54.0680000000002,54.0680000000002,0.0501527522753247,54.0680000000002,1,0.1,0.1,0.247567967826188,0.123783983913094,0
"224",2,1,6,14,"6$5=20",6,5,20,0,4,3,4538,1,0,0,1145,641,2000,750,0,20,0,0,0,0,224,3,1.67e-05,0.052809504,0.947173763,2,188,3,0,0,0,0,0,0,0,0,224,224,4538,1579380,1579.38,"6$5=20",4,80.519,25.6290000000001,159.325,0.175775792277588,45.205065356444,3,0.1,0.1,0.298995571036431,0.221522108649315,0.195697621186943
"225",2,1,6,15,"9$5=35",9,5,35,0,16,13,4655,1,0,0,1243,657,2002,751,0,35,1,13,1,10,225,3,2.22e-20,7.12e-08,0.999999929,12,189,14,0,0,0,0,0,0,0,0,225,225,4655,1584035,1584.035,"9$5=35",14,1394.665,102.673,8663.419,0.141024110999259,449.211374880011,13,0.1,0.1,0.214699167330985,0.199289100582573,0.198103710832695
"226",2,1,6,16,"8$3=21",8,3,21,0,32,6,5855,1,0,0,2360,735,2004,753,0,21,1,14,1,11,226,2,0.000124411,0.804795915,0.195079674,6,190,27,0,0,0,0,0,0,0,0,226,226,5855,1589890,1589.89,"8$3=21",7,1211.753,182.822,3935.167,0.0598344671084008,491.155628103366,6,0.1,0.1,0.191450875592575,0.161680467053193,0.156718732296629
"227",2,1,6,17,"3$3=6",3,3,6,0,16,13,4062,1,0,0,691,617,2002,750,0,6,1,15,1,12,227,3,2.31e-21,4.31e-08,0.999999957,12,191,14,0,0,0,0,0,0,0,0,227,227,4062,1593952,1593.952,"3$3=6",14,1386.705,103.129,8642.974,0.141003653683618,449.11963225876,13,0.1,0.1,0.214500337909936,0.19940391822311,0.198242655170277
"228",2,1,6,18,"6$5=20",6,5,20,0,4,4,4347,1,0,0,954,641,2000,750,0,20,0,0,0,0,228,3,3.41e-07,0.010394238,0.989605421,3,192,3,0,0,0,0,0,0,0,0,228,228,4347,1598299,1598.299,"6$5=20",5,99.4379999999999,18.9189999999999,235.001,0.240404140166103,44.6781278040072,4,0.1,0.1,0.325264831548853,0.242270653229223,0.221522108649315
"229",2,1,6,19,"11$6=51",11,6,51,0,8,2,5086,1,0,0,1607,726,2000,751,0,51,0,0,0,0,229,3,0.002785446,0.433474975,0.563739579,1,193,7,0,0,0,0,0,0,0,0,229,229,5086,1603385,1603.385,"11$6=51",3,95.1990000000001,43.624,138.823,0.0917237592212517,62.0734362929885,2,0.1,0.1,0.260684495628004,0.170344985074894,0.125175229798339
"230",2,1,6,20,"11$2=21",11,2,21,0,0,1,5308,1,0,0,1923,633,2000,750,0,21,0,0,0,0,230,0,0,0,0,0,0,0,0,0,0,0,0,0,0,0,230,230,5308,1608693,1608.693,"11$2=21",2,1160.019,1160.019,1160.019,0.0050309635757698,1160.019,1,0.1,0.1,0.141672513124613,0.0708362565623065,0
"231",2,1,6,21,"6$3=15",6,3,15,0,8,2,4470,1,0,0,1036,681,2000,750,0,15,0,0,0,0,231,3,0.003231024,0.303580646,0.693188329,1,194,6,0,0,0,0,0,0,0,0,231,231,4470,1613163,1613.163,"6$3=15",3,92.3890000000001,38.3209999999999,130.71,0.098483686447549,56.7440193624398,2,0.1,0.1,0.269213084935715,0.172260350920634,0.123783983913094
"232",2,1,6,22,"6$5=20",6,5,20,0,4,5,4302,1,0,0,896,652,2000,751,0,20,0,0,0,0,232,3,8.17e-09,0.002137313,0.997862679,4,195,2,0,0,0,0,0,0,0,0,232,232,4302,1617465,1617.465,"6$5=20",6,118.604,19.1659999999999,330.830999999999,0.280432293008586,49.1837437954847,5,0.1,0.1,0.324068364156813,0.255903605050488,0.242270653229223
"233",2,1,6,23,"8$6=33",8,6,33,0,16,13,5255,1,0,0,1890,609,2004,750,0,33,0,0,0,0,233,3,5.22e-09,0.013231404,0.98676859,6,196,13,0,0,0,0,0,0,0,0,233,233,5255,1622720,1622.72,"8$6=33",14,1343.509,91.578,8426.773,0.145170794627069,433.424638712354,13,0.1,0.1,0.219952229206521,0.20048570044568,0.198988275156385
"234",2,1,6,24,"9$2=17",9,2,17,0,0,1,5190,1,0,0,1426,999,2004,754,0,17,0,0,0,0,234,0,0,0,0,0,0,0,0,0,0,0,0,0,0,0,234,234,5190,1627910,1627.91,"9$2=17",2,255.902,255.902,255.902,0.0156294875871748,255.902,1,0.1,0.1,0.180006307300546,0.0900031536502728,0
"235",2,1,6,25,"12$7=63",12,7,63,0,0,1,9199,0,0,0,3070,2873,2504,750,0,53,0,0,0,0,235,0,0,0,0,0,0,0,0,0,0,0,0,0,0,0,235,235,9199,1637109,1637.109,"12$7=63",2,504.672,504.672,504.672,0.00939167580237303,504.672,1,0.1,0.1,0.160532183604018,0.080266091802009,0
"236",2,1,6,26,"6$5=20",6,5,20,0,4,6,4503,1,0,0,1094,654,2003,750,0,20,0,0,0,0,236,3,1.98e-10,0.000512037,0.999487963,5,197,1,0,0,0,0,0,0,0,0,236,236,4503,1641612,1641.612,"6$5=20",7,142.751,24.1470000000002,475.713,0.283623959494319,61.3016947629979,6,0.1,0.1,0.303874261795912,0.26275655601412,0.255903605050488
"237",2,1,6,27,"11$6=51",11,6,51,0,8,3,5018,1,0,0,1585,681,2000,750,0,51,0,0,0,0,237,3,0.00017388,0.183529615,0.816296505,2,198,4,0,0,0,0,0,0,0,0,237,237,5018,1646630,1646.63,"11$6=51",4,138.444,43.2450000000001,268.558,0.119219865059943,75.8892633522351,3,0.1,0.1,0.261243744180989,0.193069674851418,0.170344985074894
"238",2,1,6,28,"11$4=38",11,4,38,0,16,14,5119,1,0,0,1260,1105,2002,750,0,38,0,0,0,0,238,3,1.46e-09,0.012199911,0.987800087,6,199,12,0,0,0,0,0,0,0,0,238,238,5119,1651749,1651.749,"11$4=38",15,1491.105,85.8810000000001,9845.482,0.150972774697746,457.114703568464,14,0.1,0.1,0.223009010310557,0.200581325245689,0.198979347741055
"239",2,1,6,29,"6$3=15",6,3,15,0,8,3,4761,1,0,0,1297,705,2001,754,0,15,0,0,0,0,239,3,6.05e-05,0.071566485,0.928372982,2,200,5,0,0,0,0,0,0,0,0,239,239,4761,1656510,1656.51,"6$3=15",4,135.736,43.347,260.751,0.121150577055895,74.1668845316212,3,0.1,0.1,0.261092545475359,0.194468399559315,0.172260350920634
"240",2,1,6,30,"6$5=20",6,5,20,0,4,7,4065,1,0,0,685,625,2000,753,0,20,0,0,0,0,240,3,8.11e-12,0.00011844,0.99988156,6,201,3,0,0,0,0,0,0,0,0,240,240,4065,1660575,1660.575,"6$5=20",8,161.714,18.963,608.454,0.329046688693472,62.7442413653934,7,0.1,0.1,0.325050050420279,0.27054324281489,0.26275655601412
"241",2,1,6,31,"9$5=35",9,5,35,0,16,14,4314,1,0,0,844,718,2000,750,0,35,0,0,0,0,241,3,5.31e-22,1.73e-08,0.999999983,13,202,12,0,0,0,0,0,0,0,0,241,241,4314,1664889,1664.889,"9$5=35",15,1475.519,80.8539999999998,9795.375,0.152700766700863,451.295088617906,14,0.1,0.1,0.225952348634326,0.20106665045269,0.199289100582573
"242",2,1,6,32,"10$5=40",10,5,40,0,32,7,4481,1,0,0,988,737,2000,754,0,40,1,30,1,27,242,3,7.06e-10,0.001162597,0.998837402,5,203,27,0,0,0,0,0,0,0,0,242,242,4481,1669370,1669.37,"10$5=40",8,1467.61,183.224,5269.963,0.0647052215093108,546.764917722079,7,0.1,0.1,0.191371579354875,0.16433055423103,0.160467550641909
"243",2,1,6,33,"3$3=6",3,3,6,0,16,14,3989,1,0,0,733,504,2000,750,0,6,0,0,0,0,243,3,4.56e-23,9.2e-09,0.999999991,13,204,12,0,0,0,0,0,0,0,0,243,243,3989,1673359,1673.359,"3$3=6",15,1466.112,79.4069999999999,9754.672,0.153561672759059,448.261396603447,14,0.1,0.1,0.22684759896715,0.201233496939379,0.19940391822311
"244",2,1,6,34,"6$5=20",6,5,20,0,4,8,5221,1,0,0,1861,607,2001,750,0,20,0,0,0,0,244,3,2.51e-13,4.5e-05,0.999954979,7,205,3,0,0,0,0,0,0,0,0,244,244,5221,1678580,1678.58,"6$5=20",9,179.719,18.0049999999999,752.493999999999,0.366165051942238,65.5123751036812,8,0.1,0.1,0.329896058954729,0.277138000163761,0.27054324281489
"245",2,1,6,35,"11$6=51",11,6,51,0,8,4,5622,1,0,0,2090,777,2000,752,0,51,0,0,0,0,245,3,6.21e-06,0.079855557,0.920138231,3,206,7,0,0,0,0,0,0,0,0,245,245,5622,1684202,1684.202,"11$6=51",5,176.016,37.5719999999999,418.846,0.150528087976225,82.7517812846192,4,0.1,0.1,0.270554696805333,0.208566679242201,0.193069674851418
"246",2,1,6,36,"7$4=22",7,4,22,0,32,7,5135,1,0,0,1748,630,2004,751,0,22,0,0,1,31,246,2,0.001277048,0.503101549,0.495621403,4,207,27,0,0,0,0,0,0,0,0,246,246,5135,1689337,1689.337,"7$4=22",8,1453.917,175.269,5217.055,0.0656137295374314,537.583904922496,7,0.1,0.1,0.192986407043694,0.164599794065899,0.160544563640499
"247",2,1,6,37,"6$3=15",6,3,15,0,8,4,4250,1,0,0,789,705,2000,753,0,15,0,0,0,0,247,3,1.01e-06,0.0118071,0.988191892,3,208,7,0,0,0,0,0,0,0,0,247,247,4250,1693587,1693.587,"6$3=15",5,172.813,37.077,409.059,0.152569593076148,81.202563528329,4,0.1,0.1,0.271462625226092,0.209867244692671,0.194468399559315
"248",2,1,6,38,"6$5=20",6,5,20,0,4,9,4206,1,0,0,864,585,2002,753,0,20,0,0,0,0,248,3,5.8e-15,9.53e-06,0.999990472,8,209,3,0,0,0,0,0,0,0,0,248,248,4206,1697793,1697.793,"6$5=20",10,198.932,19.213,925.410999999999,0.384957707333299,71.6736984112776,9,0.1,0.1,0.323843214620984,0.281808521609483,0.277138000163761
"249",2,1,6,39,"8$6=33",8,6,33,0,16,14,4752,1,0,0,1329,671,2000,750,0,33,0,0,0,0,249,3,7.4e-10,0.008947944,0.991052055,7,210,13,0,0,0,0,0,0,0,0,249,249,4752,1702545,1702.545,"8$6=33",15,1423.334,79.825,9544.323,0.15533896324391,440.979938534856,14,0.1,0.1,0.226586644336665,0.202225763371746,0.20048570044568
"250",2,1,6,40,"9$6=39",9,6,39,0,32,7,5819,1,0,0,2261,801,2002,752,0,39,0,0,0,0,250,3,1.38e-07,0.016076634,0.983923228,4,211,27,0,0,0,0,0,0,0,0,250,250,5819,1708364,1708.364,"9$6=39",8,1410.824,170.228,5128.471,0.0663626180848533,529.539862352108,7,0.1,0.1,0.194062425786919,0.165310113082486,0.161202639838995
"251",2,1,7,1,"6$6=21",6,6,21,0,0,2,11765,0,0,0,7539,968,2501,754,0,23,0,0,0,0,251,0,0,0,0,0,0,0,0,0,0,0,0,0,0,0,251,251,11765,1720129,1720.129,"6$6=21",3,1662.231,819.132,2481.363,0.0103724023057755,1131.36635604553,2,0.1,0.1,0.148996695596545,0.0991193235329873,0.0741806375012086
"252",2,1,7,2,"6$5=20",6,5,20,0,4,10,4363,1,0,0,1009,601,2000,750,0,20,0,0,0,0,252,3,1.2e-16,2.17e-06,0.999997826,9,212,2,0,0,0,0,0,0,0,0,252,252,4363,1724492,1724.492,"6$5=20",11,225.631,26.6990000000001,1192.401,0.360280790326333,88.8274285324561,10,0.1,0.1,0.295719549513376,0.283073160509837,0.281808521609483
"253",2,1,7,3,"11$6=51",11,6,51,0,8,5,4453,1,0,0,962,737,2001,751,0,51,0,0,0,0,253,3,1.55e-07,0.017813056,0.982186789,4,213,6,0,0,0,0,0,0,0,0,253,253,4453,1728945,1728.945,"11$6=51",6,220.759,44.7429999999999,642.561,0.159834144400504,102.650104671787,5,0.1,0.1,0.259073112208066,0.216984418069845,0.208566679242201
"254",2,1,7,4,"11$4=38",11,4,38,0,16,15,4724,1,0,0,1136,833,2000,752,0,38,0,0,0,0,254,3,5.56e-11,0.003862654,0.996137346,7,214,14,0,0,0,0,0,0,0,0,254,254,4724,1733669,1733.669,"11$4=38",16,1573.025,81.9200000000001,11074.282,0.15871549260558,471.138299731804,15,0.1,0.1,0.225307093493455,0.202126685761174,0.200581325245689
"255",2,1,7,5,"6$3=15",6,3,15,0,8,5,4252,1,0,0,768,721,2008,753,0,15,0,0,0,0,255,3,2.17e-08,0.002155219,0.99784476,4,215,6,0,0,0,0,0,0,0,0,255,255,4252,1737921,1737.921,"6$3=15",6,217.147,44.3340000000001,630.729,0.16147953447935,101.180305614615,5,0.1,0.1,0.259655324608429,0.218165258011964,0.209867244692671
"256",2,1,7,6,"6$5=20",6,5,20,0,4,11,4301,1,0,0,762,783,2000,754,0,20,0,0,0,0,256,3,2.44e-18,4.39e-07,0.999999561,10,216,3,0,0,0,0,0,0,0,0,256,256,4301,1742222,1742.222,"6$5=20",12,243.361,17.73,1387.431,0.412949671898609,85.961751392152,11,0.1,0.1,0.331356366176551,0.287096760982063,0.283073160509837
"257",2,1,7,7,"9$5=35",9,5,35,0,16,15,4859,1,0,0,752,1353,2000,752,0,35,0,0,0,0,257,3,1.47e-23,4.26e-09,0.999999996,14,217,14,0,0,0,0,0,0,0,0,257,257,4859,1747081,1747.081,"9$5=35",16,1557.711,82.192,11028.255,0.159153094603006,469.417784069918,15,0.1,0.1,0.225144335979275,0.202571505798101,0.20106665045269
"258",2,1,7,8,"8$3=21",8,3,21,0,32,7,6222,0,0,0,2371,599,2500,750,0,22,0,0,0,0,258,2,1.99e-05,0.651528501,0.348451647,7,218,27,0,0,0,0,0,0,0,0,258,258,6222,1753303,1753.303,"8$3=21",8,1375.166,163.413,5079.058,0.06701019881796,523.296459487363,7,0.1,0.1,0.195588373956348,0.165918955416087,0.161680467053193
"259",2,1,7,9,"3$3=6",3,3,6,0,16,15,3994,1,0,0,687,553,2002,750,0,6,0,0,0,0,259,3,9.7e-25,2e-09,0.999999998,14,219,14,0,0,0,0,0,0,0,0,259,259,3994,1757297,1757.297,"3$3=6",16,1550.05,83.9380000000001,11013.742,0.158538883964521,471.259786691206,15,0.1,0.1,0.224117282755849,0.202663733552909,0.201233496939379
"260",2,1,7,10,"6$5=20",6,5,20,0,4,12,4210,1,0,0,809,649,2000,750,0,20,0,0,0,0,260,3,5.44e-20,9.56e-08,0.999999904,11,220,3,0,0,0,0,0,0,0,0,260,260,4210,1761507,1761.507,"6$5=20",13,262.646,19.2850000000001,1618.851,0.431404476533088,91.1785021662256,12,0.1,0.1,0.323499842177975,0.289896997997133,0.287096760982063
"261",2,1,7,11,"11$6=51",11,6,51,0,8,6,4461,1,0,0,946,763,2000,750,0,51,0,0,0,0,261,3,5.2e-09,0.004387437,0.995612558,5,221,7,0,0,0,0,0,0,0,0,261,261,4461,1765968,1765.968,"11$6=51",7,257.782,37.0230000000001,864.699000000001,0.186982753073593,107.743466392034,6,0.1,0.1,0.271562725946454,0.224781319195075,0.216984418069845
"262",2,1,7,12,"8$7=35",8,7,35,0,0,1,8343,1,0,0,2652,2929,2004,755,0,35,0,0,0,0,262,0,0,0,0,0,0,0,0,0,0,0,0,0,0,0,262,262,8343,1774311,1774.311,"8$7=35",2,1639.939,1639.939,1639.939,0.00388042442379463,1639.939,1,0.1,0.1,0.135060842484778,0.0675304212423891,0
"263",2,1,7,13,"6$3=15",6,3,15,0,8,6,4342,1,0,0,799,790,2000,750,0,15,0,0,0,0,263,3,8.37e-10,0.000498823,0.999501177,5,222,6,0,0,0,0,0,0,0,0,263,263,4342,1778653,1778.653,"6$3=15",7,257.879,40.732,875.121,0.180692425340814,112.124659904284,6,0.1,0.1,0.265138244523135,0.224875684656417,0.218165258011964
"264",2,1,7,14,"6$5=20",6,5,20,0,4,13,4299,1,0,0,779,761,2002,750,0,20,0,0,0,0,264,3,1.6e-21,2.23e-08,0.999999978,12,223,2,0,0,0,0,0,0,0,0,264,264,4299,1782952,1782.952,"6$5=20",14,284.091,21.4449999999999,1897.636,0.434750711040686,100.05965021768,13,0.1,0.1,0.313988087559087,0.291617790108702,0.289896997997133
"265",2,1,7,15,"8$6=33",8,6,33,0,16,15,6236,1,0,0,2831,646,2005,752,0,33,0,0,0,0,265,3,9.74e-11,0.006774044,0.993225956,8,224,13,0,0,0,0,0,0,0,0,265,265,6236,1789188,1789.188,"8$6=33",16,1509.977,86.643,10843.968,0.158253214930842,470.872889200727,15,0.1,0.1,0.222583921133529,0.203498148231857,0.202225763371746
"266",2,1,7,16,"9$4=30",9,4,30,0,0,2,7943,0,0,0,3178,1512,2500,751,0,34,0,0,0,0,266,0,0,0,0,0,0,0,0,0,0,0,0,0,0,0,266,266,7943,1797131,1797.131,"9$4=30",3,1711.56,583.334,2294.894,0.0121828396428904,931.353420732527,2,0.1,0.1,0.156901902798649,0.0997110205772902,0.071115579466611
"267",2,1,7,17,"8$2=15",8,2,15,0,0,1,4722,1,0,0,1216,750,2000,753,0,15,0,0,0,0,267,0,0,0,0,0,0,0,0,0,0,0,0,0,0,0,267,267,4722,1801853,1801.853,"8$2=15",2,1358.188,1358.188,1358.188,0.00446971758222392,1358.188,1,0.1,0.1,0.138582733828596,0.069291366914298,0
"268",2,1,7,18,"6$5=20",6,5,20,0,4,14,4607,1,0,0,1183,665,2002,754,0,20,0,0,0,0,268,3,4.28e-23,6.28e-09,0.999999994,13,225,1,0,0,0,0,0,0,0,0,268,268,4607,1806460,1806.46,"6$5=20",15,307.599,23.508,2226.748,0.432567669330474,110.817143667285,14,0.1,0.1,0.306113512539214,0.292584171604069,0.291617790108702
"269",2,1,7,19,"11$6=51",11,6,51,0,8,7,5014,1,0,0,1491,769,2000,752,0,51,0,0,0,0,269,3,1.24e-10,0.001341819,0.998658181,6,226,4,0,0,0,0,0,0,0,0,269,269,5014,1811474,1811.474,"11$6=51",8,303.288,45.5059999999999,1183.241,0.189559948746248,129.287113557812,7,0.1,0.1,0.258007077655889,0.228934539002676,0.224781319195075
"270",2,1,7,20,"11$4=38",11,4,38,0,16,16,4947,1,0,0,1042,1153,2000,750,0,38,0,0,0,0,270,3,2.15e-12,0.001190845,0.998809155,8,227,12,0,0,0,0,0,0,0,0,270,270,4947,1816421,1816.421,"11$4=38",17,1655.777,82.752,12398.314,0.164152104725054,491.691639676165,16,0.1,0.1,0.224811615671982,0.203461093402986,0.202126685761174
"271",2,1,7,21,"6$3=15",6,3,15,0,8,7,6199,1,0,0,1795,1649,2001,752,0,15,0,0,0,0,271,3,2.26e-11,0.000176026,0.999823974,6,228,5,0,0,0,0,0,0,0,0,271,271,6199,1822620,1822.62,"6$3=15",8,301.846,43.9669999999999,1182.89,0.190100774361078,128.92663043363,7,0.1,0.1,0.260184333526124,0.22928926576513,0.224875684656417
"272",2,1,7,22,"6$5=20",6,5,20,0,4,15,4358,1,0,0,897,705,2000,754,0,20,0,0,0,0,272,3,8.93e-25,1.47e-09,0.999999999,14,229,3,0,0,0,0,0,0,0,0,272,272,4358,1826978,1826.978,"6$5=20",16,328.117,20.518,2534.518,0.456517578809996,114.023985162684,15,0.1,0.1,0.317892759695594,0.294165958359789,0.292584171604069
"273",2,1,7,23,"9$5=35",9,5,35,0,16,16,4564,1,0,0,943,865,2003,751,0,35,0,0,0,0,273,3,4.34e-25,1.19e-09,0.999999999,15,230,12,0,0,0,0,0,0,0,0,273,273,4564,1831542,1831.542,"9$5=35",17,1642.172,84.4610000000002,12379.631,0.163435150610616,493.906770622701,16,0.1,0.1,0.223815454576086,0.203821149843865,0.202571505798101
"274",2,1,7,24,"10$5=40",10,5,40,0,32,8,4563,1,0,0,1058,751,2002,750,0,40,0,0,0,0,274,3,2.81e-11,0.000356134,0.999643866,6,231,27,0,0,0,0,0,0,0,0,274,274,4563,1836105,1836.105,"10$5=40",9,1634.345,166.735,6603.843,0.0708660737368743,582.854693769345,8,0.1,0.1,0.194833891102147,0.167719813883376,0.16433055423103
"275",2,1,7,25,"3$3=6",3,3,6,0,16,16,3899,1,0,0,641,505,2000,750,0,6,0,0,0,0,275,3,3.01e-26,4.77e-10,1,15,232,12,0,0,0,0,0,0,0,0,275,275,3899,1840004,1840.004,"3$3=6",17,1632.757,82.7069999999999,12337.054,0.164267551562175,490.946740722067,16,0.1,0.1,0.224838235218043,0.203968116003799,0.202663733552909
"276",2,1,7,26,"6$5=20",6,5,20,0,4,16,4437,1,0,0,643,1041,2000,750,0,20,0,0,0,0,276,3,2.18e-26,3.21e-10,1,15,233,3,0,0,0,0,0,0,0,0,276,276,4437,1844441,1844.441,"6$5=20",17,345.58,17.463,2813.926,0.495415634425603,112.835159185648,16,0.1,0.1,0.332805777086607,0.296438888873132,0.294165958359789
"277",2,1,7,27,"11$6=51",11,6,51,0,8,8,4245,1,0,0,701,791,2001,750,0,51,0,0,0,0,277,3,2.84e-12,0.000265024,0.999734976,7,234,7,0,0,0,0,0,0,0,0,277,277,4245,1848686,1848.686,"11$6=51",9,340.5,37.212,1480.937,0.213907493918511,133.333686121879,8,0.1,0.1,0.271213287732819,0.23363217775047,0.228934539002676
"278",2,1,7,28,"7$4=22",7,4,22,0,32,8,5661,1,0,0,1969,937,2001,752,0,22,0,0,0,0,278,3,0.00016672,0.34829624,0.65153704,1,235,27,0,0,0,0,0,0,0,0,278,278,5661,1854347,1854.347,"7$4=22",9,1618.927,165.01,6537.135,0.0715211640417913,575.940956067223,8,0.1,0.1,0.195223074868456,0.168002380821738,0.164599794065899
"279",2,1,7,29,"6$3=15",6,3,15,0,8,8,4291,1,0,0,834,703,2000,751,0,15,0,0,0,0,279,3,4.05e-13,3.37e-05,0.999966334,7,236,7,0,0,0,0,0,0,0,0,279,279,4291,1858638,1858.638,"6$3=15",9,337.864,36.018,1471.034,0.216510679159059,131.447909445647,8,0.1,0.1,0.27346488141332,0.234197667503818,0.22928926576513
"280",2,1,7,30,"6$5=20",6,5,20,0,4,17,4270,1,0,0,889,625,2000,754,0,20,0,0,0,0,280,3,6.24e-28,8.44e-11,1,16,237,3,0,0,0,0,0,0,0,0,280,280,4270,1862908,1862.908,"6$5=20",18,364.047,18.4669999999999,3127.865,0.511785417741533,117.251938573442,17,0.1,0.1,0.327513775210613,0.298165271447436,0.296438888873132
"281",2,1,7,31,"8$6=33",8,6,33,0,16,16,5453,1,0,0,1929,768,2003,750,0,33,0,0,0,0,281,3,4.79e-12,0.003323589,0.996676411,9,238,13,0,0,0,0,0,0,0,0,281,281,5453,1868361,1868.361,"8$6=33",17,1589.15,79.173,12110.736,0.166653740598824,481.874908643896,16,0.1,0.1,0.226994528133437,0.204880288226068,0.203498148231857
"282",2,1,7,32,"9$6=39",9,6,39,0,32,8,5094,1,0,0,857,1479,2004,751,0,39,-1,-30,0,0,282,3,8.07e-09,0.005669829,0.994330163,5,239,27,0,0,0,0,0,0,0,0,282,282,5094,1873455,1873.455,"9$6=39",9,1575.915,165.091,6449.199,0.0718715469097457,571.618062656133,8,0.1,0.1,0.195204675825161,0.168631731165005,0.165310113082486
"283",2,1,7,33,"6$2=11",6,2,11,0,0,1,4772,1,0,0,1231,788,2000,751,0,11,0,0,0,0,283,0,0,0,0,0,0,0,0,0,0,0,0,0,0,0,283,283,4772,1878227,1878.227,"6$2=11",2,936.53,936.53,936.53,0.00590688790983983,936.53,1,0.1,0.1,0.146090333664628,0.0730451668323138,0
"284",2,1,7,34,"6$5=20",6,5,20,0,4,18,4361,1,0,0,911,697,2000,750,0,20,0,0,0,0,284,3,1.96e-29,2.34e-11,1,17,240,2,0,0,0,0,0,0,0,0,284,284,4361,1882588,1882.588,"6$5=20",19,383.727,19.6800000000001,3482.105,0.518451602540467,124.120418466269,18,0.1,0.1,0.321648461040161,0.299401228794422,0.298165271447436
"285",2,1,7,35,"11$6=51",11,6,51,0,8,9,4565,1,0,0,1027,785,2000,751,0,51,0,0,0,0,285,3,6.59e-14,6.48e-05,0.999935189,8,241,6,0,0,0,0,0,0,0,0,285,285,4565,1887153,1887.153,"11$6=51",10,378.967,38.4670000000001,1827.14,0.227580500492454,144.06781751243,9,0.1,0.1,0.268955951203537,0.237164555095777,0.23363217775047
"286",2,1,7,36,"11$4=38",11,4,38,0,16,17,5213,1,0,0,1102,1358,2000,750,0,38,0,0,0,0,286,3,8.18e-14,0.000381134,0.999618866,9,242,14,0,0,0,0,0,0,0,0,286,286,5213,1892366,1892.366,"11$4=38",18,1731.722,75.9449999999999,13689.379,0.173387744631081,498.674440628185,17,0.1,0.1,0.229085811945647,0.204884688877579,0.203461093402986
"287",2,1,7,37,"6$3=15",6,3,15,0,8,9,4181,1,0,0,706,721,2000,752,0,15,0,0,0,0,287,3,9.01e-15,6.42e-06,0.999993578,8,243,6,0,0,0,0,0,0,0,0,287,287,4181,1896547,1896.547,"6$3=15",10,375.773,37.9090000000001,1812.215,0.229796476725545,142.339203556278,9,0.1,0.1,0.269946348721286,0.237772535625565,0.234197667503818
"288",2,1,7,38,"6$5=20",6,5,20,0,4,19,4420,1,0,0,970,697,2000,750,0,20,0,0,0,0,288,3,6.76e-31,6.94e-12,1,18,244,3,0,0,0,0,0,0,0,0,288,288,4420,1900967,1900.967,"6$5=20",20,402.106,18.3790000000001,3831.306,0.539172272549475,127.167615007975,19,0.1,0.1,0.327960874098754,0.300829211059638,0.299401228794422
"289",2,1,7,39,"9$5=35",9,5,35,0,16,17,4374,1,0,0,902,718,2000,752,0,35,0,0,0,0,289,3,1.31e-26,3.35e-10,1,16,245,14,0,0,0,0,0,0,0,0,289,289,4374,1905341,1905.341,"9$5=35",18,1715.971,73.799,13634.214,0.174552460515972,494.820450430142,17,0.1,0.1,0.230546666962892,0.205305900794922,0.203821149843865
"290",2,1,7,40,"8$3=21",8,3,21,0,32,8,5495,1,0,0,2089,649,2003,752,0,21,-1,-22,0,0,290,3,2.71e-06,0.477191922,0.522805365,1,246,27,0,0,0,0,0,0,0,0,290,290,5495,1910836,1910.836,"8$3=21",9,1532.699,157.533,6339.322,0.0733840653218271,557.145399370966,8,0.1,0.1,0.196976679998699,0.169369813703044,0.165918955416087
"291",2,1,8,1,"3$3=6",3,3,6,0,16,17,4475,1,0,0,1241,481,2000,750,0,6,0,0,0,0,291,3,7.1e-28,1.45e-10,1,16,247,14,0,0,0,0,0,0,0,0,291,291,4475,1915311,1915.311,"3$3=6",18,1708.064,75.307,13617.273,0.173931571161366,496.592044711247,17,0.1,0.1,0.229513988742006,0.205387331155922,0.203968116003799
"292",2,1,8,2,"6$5=20",6,5,20,0,4,20,4656,1,0,0,1070,831,2001,751,0,20,0,0,0,0,292,3,2.24e-32,2.17e-12,1,19,248,3,0,0,0,0,0,0,0,0,292,292,4656,1919967,1919.967,"6$5=20",21,421.106,19,4211.306,0.549849949512615,132.666435083638,20,0.1,0.1,0.324869994957859,0.301974010292887,0.300829211059638
"293",2,1,8,3,"11$6=51",11,6,51,0,8,10,4325,1,0,0,816,753,2003,751,0,51,0,0,0,0,293,3,1.62e-15,1.46e-05,0.999985389,9,249,7,0,0,0,0,0,0,0,0,293,293,4325,1924292,1924.292,"11$6=51",11,416.106,37.1389999999999,2198.53,0.243029292387607,152.65283847016,10,0.1,0.1,0.271347952903529,0.240272136714663,0.237164555095777
"294",2,1,8,4,"4$2=7",4,2,7,0,0,1,4566,1,0,0,1180,633,2000,750,0,7,0,0,0,0,294,0,0,0,0,0,0,0,0,0,0,0,0,0,0,0,294,294,4566,1928858,1928.858,"4$2=7",2,640.958,640.958,640.958,0.0078501475662602,640.958,1,0.1,0.1,0.154626519832134,0.077313259916067,0
"295",2,1,8,5,"6$3=15",6,3,15,0,8,10,4443,1,0,0,1036,655,2000,750,0,15,0,0,0,0,295,3,1.95e-16,1.5e-06,0.999998504,9,250,6,0,0,0,0,0,0,0,0,295,295,4443,1933301,1933.301,"6$3=15",11,412.527,36.7539999999999,2179.755,0.245033062066615,151.048815240594,10,0.1,0.1,0.272064521101299,0.240889988850632,0.237772535625565
"296",2,1,8,6,"6$5=20",6,5,20,0,4,21,4446,1,0,0,948,738,2004,754,0,20,0,0,0,0,296,3,7.32e-34,6.66e-13,1,20,251,2,0,0,0,0,0,0,0,0,296,296,4446,1937747,1937.747,"6$5=20",22,438.886,17.78,4584.686,0.571549927613008,135.08804305125,21,0.1,0.1,0.331088435718722,0.303297393266788,0.301974010292887
"297",2,1,8,7,"8$6=33",8,6,33,0,16,17,5405,1,0,0,878,1769,2005,750,0,33,-1,-15,0,0,297,3,1.96e-13,0.001045752,0.998954248,10,252,13,0,0,0,0,0,0,0,0,297,297,5405,1943152,1943.152,"8$6=33",18,1663.941,74.7909999999999,13382.183,0.175599596896054,489.99235350011,17,0.1,0.1,0.229864042364331,0.206268274567083,0.204880288226068
"298",2,1,8,8,"11$7=56",11,7,56,0,0,1,8167,0,0,0,3992,919,2503,750,0,58,0,0,0,0,298,0,0,0,0,0,0,0,0,0,0,0,0,0,0,0,298,298,8167,1951319,1951.319,"11$7=56",2,402.646,402.646,402.646,0.0111251905497996,402.646,1,0.1,0.1,0.166533824740257,0.0832669123701284,0
"299",2,1,8,9,"10$7=49",10,7,49,0,0,1,12940,0,0,0,7190,2494,2500,754,0,48,0,0,0,0,299,0,0,0,0,0,0,0,0,0,0,0,0,0,0,0,299,299,12940,1964259,1964.259,"10$7=49",2,1252.367,1252.367,1252.367,0.00475008398626965,1252.367,1,0.1,0.1,0.140154978833628,0.0700774894168139,0
"300",2,1,8,10,"6$5=20",6,5,20,0,4,22,4313,1,0,0,795,761,2003,752,0,20,0,0,0,0,300,3,3.9e-35,2.31e-13,1,21,253,1,0,0,0,0,0,0,0,0,300,300,4313,1968572,1968.572,"6$5=20",23,469.711,30.8249999999998,5262.836,0.506298854001616,164.572966107643,22,0.1,0.1,0.284670229197687,0.302487516568132,0.303297393266788
"301",2,1,8,11,"11$6=51",11,6,51,0,8,11,4729,1,0,0,960,1015,2000,752,0,51,0,0,0,0,301,3,4.16e-17,3.68e-06,0.999996322,10,254,4,0,0,0,0,0,0,0,0,301,301,4729,1973301,1973.301,"11$6=51",12,465.115,49.009,2737.629,0.232707747040205,181.611640059228,11,0.1,0.1,0.25342212768863,0.241367969295827,0.240272136714663
"302",2,1,8,12,"11$4=38",11,4,38,0,16,18,5075,1,0,0,1068,1250,2000,754,0,38,-1,-10,0,0,302,3,2.85e-15,0.000119753,0.999880247,10,255,12,0,0,0,0,0,0,0,0,302,302,5075,1978376,1978.376,"11$4=38",19,1817.732,86.01,15237.559,0.17371146350345,534.249759576156,18,0.1,0.1,0.222936675480385,0.205834793435621,0.204884688877579
"303",2,1,8,13,"6$3=15",6,3,15,0,8,11,4388,1,0,0,858,777,2000,750,0,15,0,0,0,0,303,3,3.47e-18,3.08e-07,0.999999692,10,256,5,0,0,0,0,0,0,0,0,303,303,4388,1982764,1982.764,"6$3=15",12,461.99,49.463,2723.848,0.232939446972498,181.24225851768,11,0.1,0.1,0.252862156553516,0.241887669492539,0.240889988850632
"304",2,1,8,14,"6$5=20",6,5,20,0,4,23,4169,1,0,0,675,737,2001,754,0,20,0,0,0,0,304,3,6.83e-36,1.14e-13,1,22,257,3,0,0,0,0,0,0,0,0,304,304,4169,1986933,1986.933,"6$5=20",24,488.072,18.3610000000001,5685.139,0.554153063013449,157.999068286783,23,0.1,0.1,0.328052706723023,0.303552732824586,0.302487516568132
"305",2,1,8,15,"9$5=35",9,5,35,0,16,18,5079,1,0,0,926,1401,2000,750,0,35,-1,-7,0,0,305,3,3.9e-28,9.73e-11,1,17,258,12,0,0,0,0,0,0,0,0,305,305,5079,1992012,1992.012,"9$5=35",19,1802.642,86.6709999999998,15194.292,0.173778739582474,533.765678344345,18,0.1,0.1,0.222568400912389,0.206214453432684,0.205305900794922
"306",2,1,8,16,"10$5=40",10,5,40,0,32,9,4679,1,0,0,1071,853,2001,751,0,40,-1,-6,0,0,306,3,1.73e-12,0.000131887,0.999868113,7,259,27,0,0,0,0,0,0,0,0,306,306,4679,1996691,1996.691,"10$5=40",10,1794.931,160.586,8049.117,0.0766459387231897,617.575033724257,9,0.1,0.1,0.196247156972138,0.170572548192252,0.167719813883376
"307",2,1,8,17,"3$3=6",3,3,6,0,16,18,4000,1,0,0,584,657,2002,754,0,6,-1,-5,0,0,307,3,1.56e-29,3.18e-11,1,17,260,12,0,0,0,0,0,0,0,0,307,307,4000,2000691,2000.691,"3$3=6",19,1793.444,85.3800000000001,15154.113,0.17436677620659,531.609667017273,18,0.1,0.1,0.223291389515145,0.206329650016933,0.205387331155922
"308",2,1,8,18,"6$5=20",6,5,20,0,4,24,4302,1,0,0,876,673,2001,750,0,20,0,0,0,0,308,3,3.65e-36,8.34e-14,1,23,261,3,0,0,0,0,0,0,0,0,308,308,4302,2004993,2004.993,"6$5=20",25,506.132,18.0599999999999,6118.579,0.580877214485293,158.202663693387,24,0.1,0.1,0.329607852862452,0.3045949376261,0.303552732824586
"309",2,1,8,19,"11$6=51",11,6,51,0,8,12,4432,1,0,0,854,822,2000,753,0,51,0,0,0,0,309,3,1.24e-18,9.26e-07,0.999999074,11,262,7,0,0,0,0,0,0,0,0,309,309,4432,2009425,2009.425,"11$6=51",13,501.239,36.124,3171.117,0.258481772113006,180.302575885854,12,0.1,0.1,0.273260673253173,0.243821254215623,0.241367969295827
"310",2,1,8,20,"7$4=22",7,4,22,0,32,9,5413,1,0,0,1591,1065,2001,753,0,22,-1,-2,0,0,310,3,2.5e-05,0.236741717,0.76323326,2,263,27,0,0,0,0,0,0,0,0,310,310,5413,2014838,2014.838,"7$4=22",10,1779.418,160.491,7981.554,0.0770156821715937,613.370201199242,9,0.1,0.1,0.196269570423242,0.170829099781889,0.168002380821738
"311",2,1,8,21,"6$3=15",6,3,15,0,8,12,4122,1,0,0,647,721,2001,751,0,15,0,0,0,0,311,3,6.64e-20,5.84e-08,0.999999942,11,264,7,0,0,0,0,0,0,0,0,311,311,4122,2018960,2018.96,"6$3=15",13,498.186,36.1960000000001,3158.2,0.258637872804111,180.052184598257,12,0.1,0.1,0.273122456686403,0.244290345430528,0.241887669492539
"312",2,1,8,22,"8$4=26",8,4,26,0,4,0,5105,0,0,0,1073,777,2503,750,0,33,0,0,0,0,312,1,1,0,0,1,265,NA,0,0,0,0,0,0,0,0,312,312,5105,2024065,2024.065,"8$4=26",1,0,NA,0,0,1,0,0.1,0.1,0,0,0
"313",2,1,8,23,"8$6=33",8,6,33,0,16,18,4526,1,0,0,820,954,2000,750,0,33,1,1,0,0,313,3,1.28e-14,0.000400547,0.999599453,11,266,13,0,0,0,0,0,0,0,0,313,313,4526,2028591,2028.591,"8$6=33",19,1749.38,85.4389999999999,14920.085,0.175421854378765,526.703635904796,18,0.1,0.1,0.223258014749589,0.207162471418794,0.206268274567083
"314",2,1,8,24,"9$6=39",9,6,39,0,32,9,4993,1,0,0,1325,910,2005,750,0,39,1,2,0,0,314,3,8.39e-10,0.003043283,0.996956716,6,267,27,0,0,0,0,0,0,0,0,314,314,4993,2033584,2033.584,"9$6=39",10,1736.044,160.129,7890.36,0.0773230215323496,609.58439551563,9,0.1,0.1,0.196355144269627,0.171404072475467,0.168631731165005
"315",2,1,8,25,"10$2=19",10,2,19,0,0,1,4725,1,0,0,1214,753,2002,754,0,19,0,0,0,0,315,0,0,0,0,0,0,0,0,0,0,0,0,0,0,0,315,315,4725,2038309,2038.309,"10$2=19",2,997.37,997.37,997.37,0.00563453102211894,997.37,1,0.1,0.1,0.144762977296889,0.0723814886484445,0
"316",2,1,8,26,"8$4=26",8,4,26,0,4,1,7199,1,0,0,2802,1638,2006,751,0,26,0,0,0,0,316,2,0.05687541,0.94312459,0,1,268,2,0,0,0,0,0,0,0,0,316,316,7199,2045508,2045.508,"8$4=26",2,21.443,21.443,21.443,0.100354266460855,21.443,1,0.1,0.1,0.313996248301708,0.156998124150854,0
"317",2,1,8,27,"11$6=51",11,6,51,0,8,13,4797,1,0,0,1113,929,2001,752,0,51,0,0,0,0,317,3,3.52e-20,2.66e-07,0.999999734,12,269,6,0,0,0,0,0,0,0,0,317,317,4797,2050305,2050.305,"11$6=51",14,542.119,40.8799999999999,3702.557,0.263418379455008,195.282317858553,13,0.1,0.1,0.264899417261281,0.245326837290313,0.243821254215623
"318",2,1,8,28,"11$4=38",11,4,38,0,16,19,4522,1,0,0,930,838,2001,751,0,38,1,6,0,0,318,3,1e-16,3.69e-05,0.999963141,11,270,14,0,0,0,0,0,0,0,0,318,318,4522,2054827,2054.827,"11$4=38",20,1894.183,76.4510000000002,16690.128,0.182412218219538,541.417066885208,19,0.1,0.1,0.228749808043825,0.206980544166031,0.205834793435621
"319",2,1,8,29,"6$3=15",6,3,15,0,8,13,4269,1,0,0,753,761,2001,751,0,15,0,0,0,0,319,3,1.52e-21,1.27e-08,0.999999987,12,271,6,0,0,0,0,0,0,0,0,319,319,4269,2059096,2059.096,"6$3=15",14,538.322,40.136,3679.968,0.265179782343871,193.669549105944,13,0.1,0.1,0.266112757146912,0.245849089124555,0.244290345430528
"320",2,1,8,30,"8$4=26",8,4,26,0,4,2,5236,1,0,0,1176,1305,2003,750,0,26,0,0,0,0,320,3,0.0019287,0.300402812,0.697668488,1,272,3,0,0,0,0,0,0,0,0,320,320,5236,2064332,2064.332,"8$4=26",3,40.2669999999998,18.8239999999998,59.0909999999997,0.173212478958959,26.5685183359463,2,0.1,0.1,0.325731031577468,0.213242426626392,0.156998124150854
"321",2,1,8,31,"9$5=35",9,5,35,0,16,19,4321,1,0,0,851,713,2000,754,0,35,1,9,0,0,321,3,1.23e-29,2.87e-11,1,18,273,14,0,0,0,0,0,0,0,0,321,321,4321,2068653,2068.653,"9$5=35",20,1879.283,76.6410000000001,16650.471,0.182399838410507,541.2478696684,19,0.1,0.1,0.228624447840534,0.207334953153076,0.206214453432684
"322",2,1,8,32,"8$3=21",8,3,21,0,32,9,5422,1,0,0,1959,707,2000,753,0,21,1,10,0,0,322,3,3.74e-07,0.329911045,0.670088582,2,274,27,0,0,0,0,0,0,0,0,322,322,5422,2074075,2074.075,"8$3=21",10,1695.938,163.239,7808.473,0.0774610116137337,607.241148714805,9,0.1,0.1,0.195628469901773,0.171995679322917,0.169369813703044
"323",2,1,8,33,"3$3=6",3,3,6,0,16,19,4095,1,0,0,740,601,2000,752,0,6,1,11,0,0,323,3,3.79e-31,8.11e-12,1,18,275,14,0,0,0,0,0,0,0,0,323,323,4095,2078170,2078.17,"3$3=6",20,1870.923,77.479,16626.214,0.182135848944062,541.943072985979,19,0.1,0.1,0.228076717301044,0.207417003381139,0.206329650016933
"324",2,1,8,34,"8$4=26",8,4,26,0,4,3,4933,1,0,0,1467,712,2001,750,0,26,0,0,0,0,324,3,5.81e-05,0.092651976,0.907289972,2,276,3,0,0,0,0,0,0,0,0,324,324,4933,2083103,2083.103,"8$4=26",4,59.038,18.7710000000002,115.404,0.223704323961422,32.7646507894855,3,0.1,0.1,0.325992600313752,0.241429970048232,0.213242426626392
"325",2,1,8,35,"11$6=51",11,6,51,0,8,14,4479,1,0,0,860,863,2003,750,0,51,0,0,0,0,325,3,1.06e-21,6.92e-08,0.999999931,13,277,7,0,0,0,0,0,0,0,0,325,325,4479,2087582,2087.582,"11$6=51",15,579.396,37.277,4224.435,0.278863940571246,201.17243418082,14,0.1,0.1,0.27109369958816,0.247044628110169,0.245326837290313
"326",2,1,8,36,"7$2=13",7,2,13,0,0,1,4933,1,0,0,1445,729,2003,754,0,13,0,0,0,0,326,0,0,0,0,0,0,0,0,0,0,0,0,0,0,0,326,326,4933,2092515,2092.515,"7$2=13",2,1518.744,1518.744,1518.744,0.00411042348796481,1518.744,1,0.1,0.1,0.136473550072066,0.0682367750360329,0
"327",2,1,8,37,"6$3=15",6,3,15,0,8,14,4200,1,0,0,715,730,2000,752,0,15,0,0,0,0,327,3,5.61e-23,3.1e-09,0.999999997,13,278,6,0,0,0,0,0,0,0,0,327,327,4200,2096715,2096.715,"6$3=15",15,575.941,37.6190000000001,4206.634,0.279000441189768,200.900970800943,14,0.1,0.1,0.270469383345571,0.247490442072623,0.245849089124555
"328",2,1,8,38,"8$4=26",8,4,26,0,4,4,4527,1,0,0,1045,729,2000,751,0,26,0,0,0,0,328,3,1.65e-06,0.022297804,0.977700542,3,279,2,0,0,0,0,0,0,0,0,328,328,4527,2101242,2101.242,"8$4=26",5,77.1770000000001,18.1390000000001,187.960000000001,0.267981319030541,38.1549907512448,4,0.1,0.1,0.329196091700908,0.258983194378767,0.241429970048232
"329",2,1,8,39,"8$6=33",8,6,33,0,16,19,5128,1,0,0,1706,665,2004,750,0,33,0,0,0,0,329,3,8.62e-16,0.000209858,0.999790142,12,280,13,0,0,0,0,0,0,0,0,329,329,5128,2106370,2106.37,"8$6=33",20,1827.159,77.779,16397.886,0.182787961681161,538.544759760078,19,0.1,0.1,0.227882654277689,0.208198480561738,0.207162471418794
"330",2,1,8,40,"4$4=10",4,4,10,0,0,2,8031,0,0,0,2794,1982,2501,750,0,12,0,0,0,0,330,0,0,0,0,0,0,0,0,0,0,0,0,0,0,0,330,330,8031,2114401,2114.401,"4$4=10",3,2085.665,1468.041,3553.706,0.00745660519999022,1736.42066065624,2,0.1,0.1,0.137107743808793,0.097540725097761,0.077757215742245
"331",2,1,9,1,"3$2=5",3,2,5,0,0,1,5643,0,0,0,1840,546,2503,752,0,6,0,0,0,0,331,0,0,0,0,0,0,0,0,0,0,0,0,0,0,0,331,331,5643,2120044,2120.044,"3$2=5",2,1020.511,1020.511,1020.511,0.00553843078076364,1020.511,1,0.1,0.1,0.14428517720628,0.0721425886031401,0
"332",2,1,9,2,"8$4=26",8,4,26,0,4,5,4715,1,0,0,1242,719,2001,751,0,26,0,0,0,0,332,3,3.91e-08,0.005879161,0.9941208,4,281,1,0,0,0,0,0,0,0,0,332,332,4715,2124759,2124.759,"8$4=26",6,100.694,23.5169999999998,305.545,0.269875578307768,50.6980401233315,5,0.1,0.1,0.306081364782848,0.266832889446114,0.258983194378767
"333",2,1,9,3,"11$6=51",11,6,51,0,8,15,4510,1,0,0,1025,729,2003,750,0,51,0,0,0,0,333,3,3.51e-23,2.01e-08,0.99999998,14,282,4,0,0,0,0,0,0,0,0,333,333,4510,2129269,2129.269,"11$6=51",16,621.083,41.6869999999999,4849.74,0.280538998442262,218.126543998317,15,0.1,0.1,0.263618643067901,0.248080504045028,0.247044628110169
"334",2,1,9,4,"11$4=38",11,4,38,0,16,20,5520,1,0,0,896,1872,2000,750,0,38,0,0,0,0,334,3,4.39e-18,1.27e-05,0.999987306,12,283,12,0,0,0,0,0,0,0,0,334,334,5520,2134789,2134.789,"11$4=38",21,1974.145,79.962,18289.368,0.186093551948424,564.312327622932,20,0.1,0.1,0.226501533642636,0.207910115093489,0.206980544166031
"335",2,1,9,5,"6$3=15",6,3,15,0,8,15,5436,0,0,0,1548,632,2502,751,0,21,0,0,0,0,335,3,1.39e-24,1.03e-09,0.999999999,14,284,5,0,0,0,0,0,0,0,0,335,335,5436,2140225,2140.225,"6$3=15",16,619.451,43.5099999999998,4859.284,0.277214953929663,221.03635172196,15,0.1,0.1,0.260851978922917,0.248325538125767,0.247490442072623
"336",2,1,9,6,"8$4=26",8,4,26,0,4,6,4222,1,0,0,837,633,2000,750,0,26,0,0,0,0,336,3,8.62e-10,0.001241045,0.998758954,5,285,3,0,0,0,0,0,0,0,0,336,336,4222,2144447,2144.447,"8$4=26",7,120.382,19.6880000000001,423.673,0.308689123213259,54.8346705762316,6,0.1,0.1,0.321611519856292,0.274658408076139,0.266832889446114
"337",2,1,9,7,"9$5=35",9,5,35,0,16,20,4390,1,0,0,899,736,2002,750,0,35,0,0,0,0,337,3,4.33e-31,9.57e-12,1,19,286,12,0,0,0,0,0,0,0,0,337,337,4390,2148837,2148.837,"9$5=35",21,1959.467,80.1840000000002,18254.151,0.186000320194528,564.451759017911,20,0.1,0.1,0.226364051202153,0.208241100679223,0.207334953153076
"338",2,1,9,8,"10$5=40",10,5,40,0,32,10,4631,1,0,0,1129,744,2001,754,0,40,1,26,0,0,338,3,2.64e-13,6.61e-05,0.99993385,8,287,27,0,0,0,0,0,0,0,0,338,338,4631,2153468,2153.468,"10$5=40",11,1951.708,156.777,9616.887,0.0819609232488847,652.650787296336,10,0.1,0.1,0.197160325821808,0.172989618885848,0.170572548192252
"339",2,1,9,9,"3$3=6",3,3,6,0,16,20,3944,1,0,0,672,518,2000,751,0,6,0,0,0,0,339,3,1.17e-32,2.27e-12,1,19,288,12,0,0,0,0,0,0,0,0,339,339,3944,2157412,2157.412,"3$3=6",21,1950.165,79.2419999999997,18211.054,0.18655271094798,562.444978894331,20,0.1,0.1,0.226951139469443,0.208347200337725,0.207417003381139
"340",2,1,9,10,"8$4=26",8,4,26,0,4,7,4337,1,0,0,913,665,2002,750,0,26,0,0,0,0,340,3,1.92e-11,0.000286395,0.999713605,6,289,3,0,0,0,0,0,0,0,0,340,340,4337,2161749,2161.749,"8$4=26",8,137.684,17.3019999999997,544.786999999998,0.353883515192407,56.8641763550553,7,0.1,0.1,0.333695298058636,0.282038019323951,0.274658408076139
"341",2,1,9,11,"11$6=51",11,6,51,0,8,16,4660,1,0,0,1114,794,2000,750,0,51,0,0,0,0,341,3,9.39e-25,5.87e-09,0.999999994,15,290,7,0,0,0,0,0,0,0,0,341,341,4660,2166409,2166.409,"11$6=51",17,658.223,37.1400000000003,5443.98,0.29589891178456,223.049410436691,16,0.1,0.1,0.271346105605287,0.24944906884269,0.248080504045028
"342",2,1,9,12,"7$4=22",7,4,22,0,32,10,7627,0,0,0,2286,2087,2501,750,0,21,1,30,0,0,342,3,6.19e-06,0.178418142,0.82157567,3,291,27,0,0,0,0,0,0,0,0,342,342,7627,2174036,2174.036,"7$4=22",11,1938.616,159.198,9573.534,0.0817729750100806,653.734486725316,10,0.1,0.1,0.196576447286084,0.173169767736816,0.170829099781889
"343",2,1,9,13,"6$3=15",6,3,15,0,8,16,4072,1,0,0,669,650,2000,750,0,15,0,0,0,0,343,3,2.5e-26,2.05e-10,1,15,292,7,0,0,0,0,0,0,0,0,343,343,4072,2178108,2178.108,"6$3=15",17,657.334,37.8830000000003,5465.412,0.292745538742541,225.847924103863,16,0.1,0.1,0.269993006553535,0.249600095092106,0.248325538125767
"344",2,1,9,14,"8$4=26",8,4,26,0,4,8,4263,1,0,0,804,703,2000,754,0,26,0,0,0,0,344,3,4.62e-13,6.7e-05,0.999932974,7,293,3,0,0,0,0,0,0,0,0,344,344,4263,2182371,2182.371,"8$4=26",9,158.306,20.6220000000003,709.763000000001,0.360704668564354,65.9511810473319,8,0.1,0.1,0.31744210719752,0.285971806865459,0.282038019323951
